,ID,block,trial_number,food,reaction_time,rating,fat,sugar
0,1,health,1,apple,2.68,7.0,high,low
1,1,health,2,beef,2.05,4.0,high,high
2,1,health,3,eggs,,,low,low
3,1,health,4,cookie,0.86,4.0,high,high
4,1,health,5,bacon,1.51,8.0,low,high
5,1,health,6,donut,3.15,8.0,high,high
6,1,health,7,broccoli,2.09,8.0,low,high
7,1,health,8,kale,2.47,5.0,low,high
8,1,health,9,fries,1.46,9.0,low,high
9,1,health,10,bacon,1.7,2.0,low,high
10,1,health,11,pasta,3.96,1.0,low,high
11,1,health,12,cake,0.98,9.0,high,low
12,1,health,13,cake,1.98,10.0,high,low
13,1,health,14,syrup,3.18,6.0,low,low
14,1,health,15,spinach,3.36,4.0,low,low
15,1,health,16,burger,0.68,4.0,high,high
16,1,health,17,shrimp,0.89,10.0,high,high
17,1,health,18,cereal,2.49,1.0,high,high
18,1,health,19,steak,1.55,6.0,high,low
19,1,health,20,candy,1.55,7.0,high,low
20,1,health,21,soda,1.35,1.0,low,high
21,1,health,22,grapes,1.25,3.0,high,high
22,1,health,23,onion rings,3.31,1.0,low,low
23,1,health,24,pasta,3.17,6.0,low,high
24,1,health,25,peach,3.98,8.0,high,low
25,1,health,26,burger,3.16,9.0,high,high
26,1,health,27,peach,2.33,2.0,high,low
27,1,health,28,onion rings,3.76,2.0,low,low
28,1,health,29,milk,1.0,4.0,low,high
29,1,health,30,fries,1.81,2.0,low,high
30,1,health,31,chocolate,2.33,7.0,high,high
31,1,health,32,carrot,2.92,2.0,high,high
32,1,health,33,cucumber,3.36,8.0,low,high
33,1,health,34,beans,2.57,9.0,low,high
34,1,health,35,cookie,1.01,3.0,high,high
35,1,health,36,avocado,1.35,10.0,low,low
36,1,health,37,kale,1.57,9.0,low,high
37,1,health,38,eggs,1.89,6.0,low,low
38,1,health,39,candy,1.98,9.0,high,low
39,1,health,40,peach,2.11,4.0,high,low
40,1,health,41,cheese,2.79,8.0,high,low
41,1,health,42,onion rings,3.94,1.0,low,low
42,1,health,43,cookie,1.75,1.0,high,high
43,1,health,44,waffles,2.0,9.0,low,low
44,1,health,45,grapes,0.74,5.0,high,high
45,1,health,46,fries,1.75,6.0,low,high
46,1,health,47,oatmeal,2.0,8.0,high,low
47,1,health,48,pasta,0.81,6.0,low,high
48,1,health,49,toast,1.39,6.0,high,high
49,1,health,50,ice cream,1.18,3.0,high,low
50,1,health,51,peanut butter,3.34,3.0,low,low
51,1,health,52,peach,1.5,1.0,high,low
52,1,health,53,kale,0.68,6.0,low,high
53,1,health,54,tofu,2.44,1.0,low,high
54,1,health,55,rice,2.45,6.0,low,low
55,1,health,56,peanut butter,3.1,9.0,low,low
56,1,health,57,syrup,2.77,1.0,low,low
57,1,health,58,pear,3.22,6.0,high,high
58,1,health,59,cheese,1.31,9.0,high,low
59,1,health,60,pasta,1.3,8.0,low,high
60,1,health,61,eggs,1.82,7.0,low,low
61,1,health,62,soda,2.9,8.0,low,high
62,1,health,63,oatmeal,1.45,7.0,high,low
63,1,health,64,mango,3.82,4.0,low,low
64,1,health,65,fries,1.43,6.0,low,high
65,1,health,66,carrot,2.22,3.0,high,high
66,1,health,67,yogurt,2.04,5.0,low,high
67,1,health,68,apple,1.26,9.0,high,low
68,1,health,69,beans,2.01,8.0,low,high
69,1,health,70,peach,3.0,2.0,high,low
70,1,health,71,burger,3.84,3.0,high,high
71,1,health,72,cereal,1.63,9.0,high,high
72,1,health,73,nuts,,,low,high
73,1,health,74,kale,1.34,10.0,low,high
74,1,health,75,eggs,2.49,7.0,low,low
75,1,taste,1,pizza,3.36,6.0,high,low
76,1,taste,2,bacon,2.84,9.0,low,high
77,1,taste,3,yogurt,3.62,2.0,low,high
78,1,taste,4,eggs,1.05,9.0,low,low
79,1,taste,5,oatmeal,1.45,6.0,high,low
80,1,taste,6,avocado,3.16,4.0,low,low
81,1,taste,7,avocado,2.36,7.0,low,low
82,1,taste,8,cereal,2.47,7.0,high,high
83,1,taste,9,bacon,1.6,9.0,low,high
84,1,taste,10,broccoli,2.5,5.0,low,high
85,1,taste,11,cranberries,1.93,1.0,high,low
86,1,taste,12,lettuce,2.91,8.0,low,high
87,1,taste,13,soda,0.72,9.0,low,high
88,1,taste,14,burger,3.63,3.0,high,high
89,1,taste,15,cereal,1.08,10.0,high,high
90,1,taste,16,banana,3.76,6.0,low,low
91,1,taste,17,donut,1.82,4.0,high,high
92,1,taste,18,pizza,1.75,3.0,high,low
93,1,taste,19,mango,2.83,8.0,low,low
94,1,taste,20,eggs,3.17,5.0,low,low
95,1,taste,21,milk,1.29,5.0,low,high
96,1,taste,22,donut,1.93,7.0,high,high
97,1,taste,23,mango,1.29,10.0,low,low
98,1,taste,24,waffles,3.23,6.0,low,low
99,1,taste,25,eggs,3.3,9.0,low,low
100,1,taste,26,granola,0.52,2.0,low,low
101,1,taste,27,milk,2.74,5.0,low,high
102,1,taste,28,waffles,1.01,5.0,low,low
103,1,taste,29,candy,2.78,4.0,high,low
104,1,taste,30,pasta,3.38,6.0,low,high
105,1,taste,31,cake,3.42,10.0,high,low
106,1,taste,32,chocolate,2.36,9.0,high,high
107,1,taste,33,peanut butter,1.7,4.0,low,low
108,1,taste,34,grapes,1.98,7.0,high,high
109,1,taste,35,rice,1.01,3.0,low,low
110,1,taste,36,peanut butter,1.12,3.0,low,low
111,1,taste,37,banana,3.47,10.0,low,low
112,1,taste,38,onion rings,2.99,8.0,low,low
113,1,taste,39,pasta,1.64,3.0,low,high
114,1,taste,40,watermelon,0.87,3.0,low,high
115,1,taste,41,milk,0.51,2.0,low,high
116,1,taste,42,salmon,1.62,1.0,low,low
117,1,taste,43,grapes,0.67,10.0,high,high
118,1,taste,44,chocolate,3.5,1.0,high,high
119,1,taste,45,popcorn,2.96,4.0,low,low
120,1,taste,46,beef,2.0,3.0,high,high
121,1,taste,47,ice cream,1.6,7.0,high,low
122,1,taste,48,waffles,2.05,8.0,low,low
123,1,taste,49,cookie,1.6,4.0,high,high
124,1,taste,50,soda,2.27,1.0,low,high
125,1,taste,51,waffles,1.35,4.0,low,low
126,1,taste,52,chicken,2.34,6.0,low,low
127,1,taste,53,eggs,2.03,2.0,low,low
128,1,taste,54,yogurt,0.72,2.0,low,high
129,1,taste,55,pizza,1.97,4.0,high,low
130,1,taste,56,avocado,1.08,6.0,low,low
131,1,taste,57,watermelon,3.44,6.0,low,high
132,1,taste,58,toast,3.32,7.0,high,high
133,1,taste,59,shrimp,1.39,7.0,high,high
134,1,taste,60,soda,1.61,2.0,low,high
135,1,taste,61,burger,0.72,2.0,high,high
136,1,taste,62,soda,3.62,6.0,low,high
137,1,taste,63,cranberries,0.52,7.0,high,low
138,1,taste,64,ice cream,3.21,3.0,high,low
139,1,taste,65,apple,3.23,10.0,high,low
140,1,taste,66,banana,3.85,7.0,low,low
141,1,taste,67,bacon,0.53,10.0,low,high
142,1,taste,68,ice cream,1.82,2.0,high,low
143,1,taste,69,grapes,3.5,1.0,high,high
144,1,taste,70,salmon,1.95,3.0,low,low
145,1,taste,71,cheese,2.24,6.0,high,low
146,1,taste,72,pizza,3.04,3.0,high,low
147,1,taste,73,lettuce,2.99,9.0,low,high
148,1,taste,74,watermelon,2.14,10.0,low,high
149,1,taste,75,pizza,3.09,4.0,high,low
150,1,choice,1,cranberries,3.13,6.0,high,low
151,1,choice,2,cucumber,0.98,8.0,low,high
152,1,choice,3,granola,1.55,7.0,low,low
153,1,choice,4,ice cream,2.68,8.0,high,low
154,1,choice,5,rice,3.51,4.0,low,low
155,1,choice,6,shrimp,2.71,7.0,high,high
156,1,choice,7,onion rings,1.93,9.0,low,low
157,1,choice,8,candy,1.87,7.0,high,low
158,1,choice,9,nuts,2.25,3.0,low,high
159,1,choice,10,cranberries,1.66,6.0,high,low
160,1,choice,11,fries,3.8,1.0,low,high
161,1,choice,12,lettuce,1.11,3.0,low,high
162,1,choice,13,eggs,0.58,5.0,low,low
163,1,choice,14,kale,2.87,8.0,low,high
164,1,choice,15,cucumber,2.36,1.0,low,high
165,1,choice,16,waffles,3.01,9.0,low,low
166,1,choice,17,turkey,1.62,9.0,high,low
167,1,choice,18,nuts,1.49,4.0,low,high
168,1,choice,19,broccoli,1.45,1.0,low,high
169,1,choice,20,chicken,2.19,8.0,low,low
170,1,choice,21,avocado,2.98,9.0,low,low
171,1,choice,22,watermelon,3.21,5.0,low,high
172,1,choice,23,cake,3.5,6.0,high,low
173,1,choice,24,pizza,1.05,8.0,high,low
174,1,choice,25,granola,1.99,5.0,low,low
175,1,choice,26,grapes,2.75,6.0,high,high
176,1,choice,27,kale,3.21,10.0,low,high
177,1,choice,28,donut,1.19,8.0,high,high
178,1,choice,29,chicken,4.0,2.0,low,low
179,1,choice,30,peanut butter,0.51,3.0,low,low
180,1,choice,31,beans,3.22,3.0,low,high
181,1,choice,32,steak,0.7,7.0,high,low
182,1,choice,33,burger,0.72,2.0,high,high
183,1,choice,34,popcorn,2.75,7.0,low,low
184,1,choice,35,beans,2.31,9.0,low,high
185,1,choice,36,milk,3.53,10.0,low,high
186,1,choice,37,apple,3.57,4.0,high,low
187,1,choice,38,chocolate,0.77,1.0,high,high
188,1,choice,39,turkey,1.17,10.0,high,low
189,1,choice,40,ice cream,1.66,7.0,high,low
190,1,choice,41,eggs,3.58,7.0,low,low
191,1,choice,42,cake,2.24,6.0,high,low
192,1,choice,43,eggs,2.15,1.0,low,low
193,1,choice,44,lettuce,3.27,3.0,low,high
194,1,choice,45,cheese,2.67,9.0,high,low
195,1,choice,46,tofu,2.11,6.0,low,high
196,1,choice,47,lettuce,3.8,7.0,low,high
197,1,choice,48,chocolate,1.46,8.0,high,high
198,1,choice,49,avocado,3.52,2.0,low,low
199,1,choice,50,beef,2.33,2.0,high,high
200,1,choice,51,watermelon,3.14,7.0,low,high
201,1,choice,52,pizza,0.86,6.0,high,low
202,1,choice,53,steak,3.04,2.0,high,low
203,1,choice,54,lettuce,0.6,1.0,low,high
204,1,choice,55,nuts,3.02,1.0,low,high
205,1,choice,56,yogurt,0.69,8.0,low,high
206,1,choice,57,nuts,1.45,10.0,low,high
207,1,choice,58,salmon,3.71,2.0,low,low
208,1,choice,59,spinach,2.23,5.0,low,low
209,1,choice,60,cereal,2.64,2.0,high,high
210,1,choice,61,cucumber,1.01,6.0,low,high
211,1,choice,62,grapes,1.76,7.0,high,high
212,1,choice,63,candy,3.75,4.0,high,low
213,1,choice,64,cheese,2.48,3.0,high,low
214,1,choice,65,bacon,0.87,10.0,low,high
215,1,choice,66,toast,3.19,9.0,high,high
216,1,choice,67,cookie,2.13,9.0,high,high
217,1,choice,68,bacon,2.0,7.0,low,high
218,1,choice,69,yogurt,0.99,9.0,low,high
219,1,choice,70,fries,1.83,4.0,low,high
220,1,choice,71,shrimp,0.63,6.0,high,high
221,1,choice,72,candy,1.03,1.0,high,low
222,1,choice,73,beef,3.7,4.0,high,high
223,1,choice,74,cereal,1.12,3.0,high,high
224,1,choice,75,toast,2.86,6.0,high,high
225,2,health,1,lettuce,3.84,4.0,low,high
226,2,health,2,banana,2.5,6.0,low,low
227,2,health,3,toast,3.53,8.0,high,high
228,2,health,4,yogurt,3.4,7.0,low,high
229,2,health,5,kale,3.96,8.0,low,high
230,2,health,6,peach,0.95,3.0,high,low
231,2,health,7,beef,3.17,2.0,high,high
232,2,health,8,cookie,,,high,high
233,2,health,9,fries,1.8,1.0,low,high
234,2,health,10,spinach,2.28,9.0,low,low
235,2,health,11,onion rings,0.62,1.0,low,low
236,2,health,12,mango,1.1,3.0,low,low
237,2,health,13,syrup,1.47,8.0,low,low
238,2,health,14,salmon,2.25,5.0,low,low
239,2,health,15,rice,3.75,6.0,low,low
240,2,health,16,rice,3.9,1.0,low,low
241,2,health,17,donut,0.59,1.0,high,high
242,2,health,18,chocolate,3.06,3.0,high,high
243,2,health,19,yogurt,2.09,3.0,low,high
244,2,health,20,toast,1.82,2.0,high,high
245,2,health,21,pizza,3.65,1.0,high,low
246,2,health,22,spinach,3.81,4.0,low,low
247,2,health,23,eggs,3.02,10.0,low,low
248,2,health,24,banana,2.51,5.0,low,low
249,2,health,25,kale,3.49,5.0,low,high
250,2,health,26,syrup,1.06,3.0,low,low
251,2,health,27,mango,2.25,2.0,low,low
252,2,health,28,toast,1.29,7.0,high,high
253,2,health,29,toast,2.07,8.0,high,high
254,2,health,30,candy,3.89,9.0,high,low
255,2,health,31,cucumber,0.78,8.0,low,high
256,2,health,32,chicken,2.7,2.0,low,low
257,2,health,33,cereal,2.06,7.0,high,high
258,2,health,34,ice cream,2.51,8.0,high,low
259,2,health,35,toast,2.18,2.0,high,high
260,2,health,36,cookie,1.97,7.0,high,high
261,2,health,37,cucumber,1.75,1.0,low,high
262,2,health,38,banana,1.07,4.0,low,low
263,2,health,39,nuts,2.91,3.0,low,high
264,2,health,40,grapes,1.86,9.0,high,high
265,2,health,41,rice,3.16,7.0,low,low
266,2,health,42,chocolate,3.4,5.0,high,high
267,2,health,43,bacon,1.78,1.0,low,high
268,2,health,44,pasta,0.72,10.0,low,high
269,2,health,45,cucumber,0.58,8.0,low,high
270,2,health,46,grapes,3.81,7.0,high,high
271,2,health,47,watermelon,3.58,2.0,low,high
272,2,health,48,onion rings,1.78,1.0,low,low
273,2,health,49,pasta,0.6,7.0,low,high
274,2,health,50,nuts,1.26,8.0,low,high
275,2,health,51,chicken,2.37,8.0,low,low
276,2,health,52,yogurt,1.48,7.0,low,high
277,2,health,53,nuts,2.92,9.0,low,high
278,2,health,54,chocolate,1.9,10.0,high,high
279,2,health,55,yogurt,1.37,9.0,low,high
280,2,health,56,onion rings,1.03,8.0,low,low
281,2,health,57,cucumber,0.86,8.0,low,high
282,2,health,58,cheese,3.43,6.0,high,low
283,2,health,59,onion rings,1.64,2.0,low,low
284,2,health,60,donut,1.72,3.0,high,high
285,2,health,61,carrot,1.58,5.0,high,high
286,2,health,62,granola,3.38,10.0,low,low
287,2,health,63,bacon,3.76,8.0,low,high
288,2,health,64,carrot,3.8,3.0,high,high
289,2,health,65,yogurt,0.87,4.0,low,high
290,2,health,66,apple,1.58,3.0,high,low
291,2,health,67,cranberries,3.39,2.0,high,low
292,2,health,68,salmon,1.9,4.0,low,low
293,2,health,69,salmon,2.61,1.0,low,low
294,2,health,70,carrot,2.32,2.0,high,high
295,2,health,71,toast,0.74,10.0,high,high
296,2,health,72,beans,3.22,9.0,low,high
297,2,health,73,peach,2.67,1.0,high,low
298,2,health,74,eggs,2.94,7.0,low,low
299,2,health,75,tofu,0.97,6.0,low,high
300,2,taste,1,syrup,1.44,4.0,low,low
301,2,taste,2,chocolate,1.08,4.0,high,high
302,2,taste,3,syrup,0.88,7.0,low,low
303,2,taste,4,bacon,2.69,8.0,low,high
304,2,taste,5,carrot,3.26,1.0,high,high
305,2,taste,6,rice,2.09,9.0,low,low
306,2,taste,7,chocolate,3.09,5.0,high,high
307,2,taste,8,milk,0.9,3.0,low,high
308,2,taste,9,beans,1.49,9.0,low,high
309,2,taste,10,syrup,1.38,10.0,low,low
310,2,taste,11,cheese,1.18,1.0,high,low
311,2,taste,12,peach,0.6,1.0,high,low
312,2,taste,13,chicken,1.34,1.0,low,low
313,2,taste,14,carrot,3.57,8.0,high,high
314,2,taste,15,candy,3.53,7.0,high,low
315,2,taste,16,cake,1.66,9.0,high,low
316,2,taste,17,spinach,3.77,3.0,low,low
317,2,taste,18,lettuce,3.73,8.0,low,high
318,2,taste,19,rice,0.53,6.0,low,low
319,2,taste,20,kale,3.96,6.0,low,high
320,2,taste,21,ice cream,,,high,low
321,2,taste,22,chicken,0.92,3.0,low,low
322,2,taste,23,onion rings,0.81,3.0,low,low
323,2,taste,24,chocolate,1.27,1.0,high,high
324,2,taste,25,nuts,3.49,8.0,low,high
325,2,taste,26,lettuce,0.66,10.0,low,high
326,2,taste,27,burger,3.81,3.0,high,high
327,2,taste,28,lettuce,2.75,9.0,low,high
328,2,taste,29,spinach,1.94,8.0,low,low
329,2,taste,30,peach,3.5,9.0,high,low
330,2,taste,31,pasta,3.09,7.0,low,high
331,2,taste,32,toast,0.52,4.0,high,high
332,2,taste,33,cereal,1.31,1.0,high,high
333,2,taste,34,yogurt,1.78,3.0,low,high
334,2,taste,35,cheese,2.27,4.0,high,low
335,2,taste,36,watermelon,2.12,4.0,low,high
336,2,taste,37,broccoli,1.52,5.0,low,high
337,2,taste,38,grapes,1.85,10.0,high,high
338,2,taste,39,kale,3.96,6.0,low,high
339,2,taste,40,candy,1.56,10.0,high,low
340,2,taste,41,peanut butter,3.65,2.0,low,low
341,2,taste,42,pear,2.92,9.0,high,high
342,2,taste,43,kale,1.25,2.0,low,high
343,2,taste,44,soda,0.7,6.0,low,high
344,2,taste,45,cookie,3.59,1.0,high,high
345,2,taste,46,mango,2.01,6.0,low,low
346,2,taste,47,apple,3.34,2.0,high,low
347,2,taste,48,apple,1.54,5.0,high,low
348,2,taste,49,onion rings,3.66,7.0,low,low
349,2,taste,50,chocolate,0.79,2.0,high,high
350,2,taste,51,kale,3.22,5.0,low,high
351,2,taste,52,eggs,3.39,9.0,low,low
352,2,taste,53,fries,2.94,6.0,low,high
353,2,taste,54,rice,3.86,8.0,low,low
354,2,taste,55,eggs,2.35,8.0,low,low
355,2,taste,56,carrot,1.0,10.0,high,high
356,2,taste,57,apple,3.97,10.0,high,low
357,2,taste,58,turkey,1.95,5.0,high,low
358,2,taste,59,kale,1.91,9.0,low,high
359,2,taste,60,grapes,3.52,4.0,high,high
360,2,taste,61,donut,3.83,9.0,high,high
361,2,taste,62,soda,1.89,6.0,low,high
362,2,taste,63,ice cream,1.91,3.0,high,low
363,2,taste,64,onion rings,3.51,9.0,low,low
364,2,taste,65,granola,0.92,5.0,low,low
365,2,taste,66,cake,2.81,4.0,high,low
366,2,taste,67,cake,2.2,8.0,high,low
367,2,taste,68,mango,1.47,6.0,low,low
368,2,taste,69,chicken,1.61,7.0,low,low
369,2,taste,70,toast,1.05,8.0,high,high
370,2,taste,71,popcorn,1.61,7.0,low,low
371,2,taste,72,yogurt,1.42,1.0,low,high
372,2,taste,73,shrimp,1.88,8.0,high,high
373,2,taste,74,waffles,3.68,3.0,low,low
374,2,taste,75,cookie,0.74,9.0,high,high
375,2,choice,1,lettuce,1.54,8.0,low,high
376,2,choice,2,tofu,3.05,2.0,low,high
377,2,choice,3,eggs,0.9,2.0,low,low
378,2,choice,4,pizza,0.51,10.0,high,low
379,2,choice,5,beans,2.64,3.0,low,high
380,2,choice,6,waffles,2.28,2.0,low,low
381,2,choice,7,milk,3.85,2.0,low,high
382,2,choice,8,cranberries,1.22,1.0,high,low
383,2,choice,9,cheese,2.7,10.0,high,low
384,2,choice,10,waffles,0.83,7.0,low,low
385,2,choice,11,yogurt,2.52,8.0,low,high
386,2,choice,12,waffles,3.97,2.0,low,low
387,2,choice,13,cookie,1.82,6.0,high,high
388,2,choice,14,onion rings,1.12,4.0,low,low
389,2,choice,15,pizza,3.62,1.0,high,low
390,2,choice,16,yogurt,1.02,1.0,low,high
391,2,choice,17,soda,0.64,3.0,low,high
392,2,choice,18,lettuce,3.47,1.0,low,high
393,2,choice,19,chicken,1.09,9.0,low,low
394,2,choice,20,donut,0.99,2.0,high,high
395,2,choice,21,pear,2.96,1.0,high,high
396,2,choice,22,burger,3.44,3.0,high,high
397,2,choice,23,bacon,1.8,6.0,low,high
398,2,choice,24,eggs,0.73,10.0,low,low
399,2,choice,25,kale,1.11,9.0,low,high
400,2,choice,26,peach,1.58,9.0,high,low
401,2,choice,27,banana,3.15,9.0,low,low
402,2,choice,28,oatmeal,2.52,10.0,high,low
403,2,choice,29,onion rings,2.18,9.0,low,low
404,2,choice,30,pasta,3.61,2.0,low,high
405,2,choice,31,tofu,,,low,high
406,2,choice,32,lettuce,1.27,8.0,low,high
407,2,choice,33,spinach,1.3,5.0,low,low
408,2,choice,34,lettuce,0.66,6.0,low,high
409,2,choice,35,onion rings,1.53,6.0,low,low
410,2,choice,36,beans,3.75,8.0,low,high
411,2,choice,37,granola,1.27,3.0,low,low
412,2,choice,38,pear,3.03,3.0,high,high
413,2,choice,39,nuts,2.33,1.0,low,high
414,2,choice,40,turkey,1.22,8.0,high,low
415,2,choice,41,cucumber,,,low,high
416,2,choice,42,pear,1.53,5.0,high,high
417,2,choice,43,cheese,3.83,3.0,high,low
418,2,choice,44,burger,,,high,high
419,2,choice,45,peanut butter,2.46,1.0,low,low
420,2,choice,46,turkey,3.55,10.0,high,low
421,2,choice,47,cookie,3.96,7.0,high,high
422,2,choice,48,popcorn,3.87,1.0,low,low
423,2,choice,49,pizza,3.28,10.0,high,low
424,2,choice,50,peach,2.76,4.0,high,low
425,2,choice,51,onion rings,3.66,2.0,low,low
426,2,choice,52,toast,0.86,4.0,high,high
427,2,choice,53,spinach,2.83,10.0,low,low
428,2,choice,54,nuts,2.99,9.0,low,high
429,2,choice,55,rice,2.37,7.0,low,low
430,2,choice,56,fries,3.83,7.0,low,high
431,2,choice,57,carrot,1.28,6.0,high,high
432,2,choice,58,burger,2.81,2.0,high,high
433,2,choice,59,oatmeal,1.63,1.0,high,low
434,2,choice,60,cereal,2.08,6.0,high,high
435,2,choice,61,bacon,,,low,high
436,2,choice,62,broccoli,3.15,7.0,low,high
437,2,choice,63,oatmeal,2.88,4.0,high,low
438,2,choice,64,onion rings,3.45,3.0,low,low
439,2,choice,65,carrot,0.64,10.0,high,high
440,2,choice,66,mango,2.97,8.0,low,low
441,2,choice,67,peach,3.8,4.0,high,low
442,2,choice,68,beans,3.81,3.0,low,high
443,2,choice,69,banana,0.5,1.0,low,low
444,2,choice,70,toast,2.73,10.0,high,high
445,2,choice,71,cookie,2.47,1.0,high,high
446,2,choice,72,tofu,1.74,2.0,low,high
447,2,choice,73,oatmeal,3.99,10.0,high,low
448,2,choice,74,turkey,3.54,4.0,high,low
449,2,choice,75,turkey,1.89,9.0,high,low
450,3,health,1,lettuce,1.1,2.0,low,high
451,3,health,2,rice,0.52,10.0,low,low
452,3,health,3,banana,2.37,9.0,low,low
453,3,health,4,cookie,1.24,2.0,high,high
454,3,health,5,oatmeal,3.72,5.0,high,low
455,3,health,6,ice cream,2.9,7.0,high,low
456,3,health,7,eggs,2.4,9.0,low,low
457,3,health,8,lettuce,2.96,9.0,low,high
458,3,health,9,peach,3.78,3.0,high,low
459,3,health,10,tofu,0.97,10.0,low,high
460,3,health,11,mango,2.29,3.0,low,low
461,3,health,12,nuts,3.83,2.0,low,high
462,3,health,13,cranberries,1.75,6.0,high,low
463,3,health,14,bacon,0.61,9.0,low,high
464,3,health,15,waffles,2.29,4.0,low,low
465,3,health,16,watermelon,1.45,5.0,low,high
466,3,health,17,turkey,3.84,7.0,high,low
467,3,health,18,eggs,3.57,1.0,low,low
468,3,health,19,pear,2.21,9.0,high,high
469,3,health,20,salmon,0.65,1.0,low,low
470,3,health,21,apple,3.09,3.0,high,low
471,3,health,22,cake,3.07,4.0,high,low
472,3,health,23,rice,0.59,2.0,low,low
473,3,health,24,cucumber,3.68,7.0,low,high
474,3,health,25,peach,2.43,1.0,high,low
475,3,health,26,cranberries,1.47,10.0,high,low
476,3,health,27,pasta,,,low,high
477,3,health,28,cake,3.37,5.0,high,low
478,3,health,29,rice,2.79,10.0,low,low
479,3,health,30,cheese,0.82,9.0,high,low
480,3,health,31,burger,2.11,2.0,high,high
481,3,health,32,popcorn,2.37,7.0,low,low
482,3,health,33,burger,1.2,5.0,high,high
483,3,health,34,pizza,1.04,9.0,high,low
484,3,health,35,watermelon,3.25,7.0,low,high
485,3,health,36,turkey,1.03,10.0,high,low
486,3,health,37,pizza,2.38,10.0,high,low
487,3,health,38,candy,1.39,8.0,high,low
488,3,health,39,bacon,0.6,5.0,low,high
489,3,health,40,waffles,2.49,8.0,low,low
490,3,health,41,toast,0.67,4.0,high,high
491,3,health,42,apple,0.53,6.0,high,low
492,3,health,43,peanut butter,3.68,5.0,low,low
493,3,health,44,peach,2.53,9.0,high,low
494,3,health,45,mango,3.54,9.0,low,low
495,3,health,46,pasta,2.45,3.0,low,high
496,3,health,47,lettuce,2.04,6.0,low,high
497,3,health,48,grapes,0.69,5.0,high,high
498,3,health,49,tofu,2.69,8.0,low,high
499,3,health,50,syrup,2.02,5.0,low,low
500,3,health,51,pear,3.53,4.0,high,high
501,3,health,52,onion rings,3.52,5.0,low,low
502,3,health,53,syrup,1.8,3.0,low,low
503,3,health,54,pizza,2.8,5.0,high,low
504,3,health,55,yogurt,2.52,5.0,low,high
505,3,health,56,toast,2.4,5.0,high,high
506,3,health,57,oatmeal,0.76,10.0,high,low
507,3,health,58,tofu,1.97,4.0,low,high
508,3,health,59,watermelon,1.52,10.0,low,high
509,3,health,60,kale,3.12,6.0,low,high
510,3,health,61,onion rings,3.77,5.0,low,low
511,3,health,62,beans,2.65,7.0,low,high
512,3,health,63,peanut butter,,,low,low
513,3,health,64,peanut butter,1.22,7.0,low,low
514,3,health,65,grapes,2.24,2.0,high,high
515,3,health,66,broccoli,2.33,7.0,low,high
516,3,health,67,granola,1.62,4.0,low,low
517,3,health,68,beans,1.19,8.0,low,high
518,3,health,69,avocado,1.67,10.0,low,low
519,3,health,70,onion rings,0.95,4.0,low,low
520,3,health,71,pasta,2.59,4.0,low,high
521,3,health,72,syrup,2.12,1.0,low,low
522,3,health,73,salmon,1.26,9.0,low,low
523,3,health,74,salmon,2.2,5.0,low,low
524,3,health,75,salmon,1.71,4.0,low,low
525,3,taste,1,onion rings,1.34,6.0,low,low
526,3,taste,2,pear,1.03,2.0,high,high
527,3,taste,3,grapes,3.91,8.0,high,high
528,3,taste,4,cranberries,0.97,6.0,high,low
529,3,taste,5,ice cream,3.42,10.0,high,low
530,3,taste,6,cranberries,1.71,9.0,high,low
531,3,taste,7,pear,2.19,2.0,high,high
532,3,taste,8,lettuce,2.93,4.0,low,high
533,3,taste,9,beans,2.16,5.0,low,high
534,3,taste,10,oatmeal,3.44,1.0,high,low
535,3,taste,11,cake,3.21,9.0,high,low
536,3,taste,12,beef,1.18,6.0,high,high
537,3,taste,13,cucumber,2.81,6.0,low,high
538,3,taste,14,soda,1.19,2.0,low,high
539,3,taste,15,toast,1.33,8.0,high,high
540,3,taste,16,turkey,2.76,3.0,high,low
541,3,taste,17,shrimp,1.85,5.0,high,high
542,3,taste,18,peach,2.52,1.0,high,low
543,3,taste,19,lettuce,1.93,8.0,low,high
544,3,taste,20,donut,1.53,6.0,high,high
545,3,taste,21,apple,1.76,4.0,high,low
546,3,taste,22,popcorn,2.33,8.0,low,low
547,3,taste,23,ice cream,1.55,8.0,high,low
548,3,taste,24,spinach,2.17,6.0,low,low
549,3,taste,25,yogurt,1.12,7.0,low,high
550,3,taste,26,banana,2.69,5.0,low,low
551,3,taste,27,pasta,3.57,4.0,low,high
552,3,taste,28,oatmeal,3.16,3.0,high,low
553,3,taste,29,onion rings,3.31,1.0,low,low
554,3,taste,30,pasta,3.91,6.0,low,high
555,3,taste,31,donut,2.2,9.0,high,high
556,3,taste,32,yogurt,1.69,6.0,low,high
557,3,taste,33,pizza,3.61,5.0,high,low
558,3,taste,34,nuts,1.7,3.0,low,high
559,3,taste,35,cheese,1.3,2.0,high,low
560,3,taste,36,cheese,3.87,5.0,high,low
561,3,taste,37,chicken,3.67,1.0,low,low
562,3,taste,38,bacon,0.85,5.0,low,high
563,3,taste,39,avocado,0.74,3.0,low,low
564,3,taste,40,milk,2.51,7.0,low,high
565,3,taste,41,beef,2.98,1.0,high,high
566,3,taste,42,pasta,2.18,10.0,low,high
567,3,taste,43,donut,1.89,7.0,high,high
568,3,taste,44,salmon,1.81,7.0,low,low
569,3,taste,45,pasta,1.79,9.0,low,high
570,3,taste,46,ice cream,1.2,3.0,high,low
571,3,taste,47,ice cream,3.9,2.0,high,low
572,3,taste,48,avocado,1.28,4.0,low,low
573,3,taste,49,cereal,0.96,10.0,high,high
574,3,taste,50,pizza,2.43,8.0,high,low
575,3,taste,51,pizza,1.63,5.0,high,low
576,3,taste,52,ice cream,1.51,1.0,high,low
577,3,taste,53,mango,0.8,6.0,low,low
578,3,taste,54,broccoli,3.24,1.0,low,high
579,3,taste,55,beef,3.35,9.0,high,high
580,3,taste,56,rice,1.68,2.0,low,low
581,3,taste,57,apple,3.17,7.0,high,low
582,3,taste,58,spinach,2.67,10.0,low,low
583,3,taste,59,granola,2.07,1.0,low,low
584,3,taste,60,milk,3.38,6.0,low,high
585,3,taste,61,donut,2.11,4.0,high,high
586,3,taste,62,waffles,1.11,7.0,low,low
587,3,taste,63,candy,2.73,7.0,high,low
588,3,taste,64,steak,3.63,5.0,high,low
589,3,taste,65,chocolate,2.48,3.0,high,high
590,3,taste,66,bacon,3.3,2.0,low,high
591,3,taste,67,eggs,3.76,4.0,low,low
592,3,taste,68,kale,0.9,10.0,low,high
593,3,taste,69,spinach,0.97,8.0,low,low
594,3,taste,70,watermelon,0.86,9.0,low,high
595,3,taste,71,toast,2.47,1.0,high,high
596,3,taste,72,chicken,3.02,5.0,low,low
597,3,taste,73,pear,3.45,7.0,high,high
598,3,taste,74,steak,0.74,3.0,high,low
599,3,taste,75,granola,2.32,3.0,low,low
600,3,choice,1,turkey,3.86,6.0,high,low
601,3,choice,2,soda,0.86,8.0,low,high
602,3,choice,3,mango,2.35,8.0,low,low
603,3,choice,4,turkey,,,high,low
604,3,choice,5,banana,3.43,7.0,low,low
605,3,choice,6,beans,3.04,9.0,low,high
606,3,choice,7,beef,2.67,5.0,high,high
607,3,choice,8,cookie,1.37,4.0,high,high
608,3,choice,9,broccoli,3.91,5.0,low,high
609,3,choice,10,cucumber,2.4,8.0,low,high
610,3,choice,11,rice,1.22,2.0,low,low
611,3,choice,12,kale,3.89,9.0,low,high
612,3,choice,13,beans,2.07,8.0,low,high
613,3,choice,14,oatmeal,2.39,2.0,high,low
614,3,choice,15,rice,2.79,7.0,low,low
615,3,choice,16,chocolate,0.92,1.0,high,high
616,3,choice,17,granola,2.66,5.0,low,low
617,3,choice,18,watermelon,2.84,2.0,low,high
618,3,choice,19,onion rings,1.74,3.0,low,low
619,3,choice,20,banana,2.33,6.0,low,low
620,3,choice,21,cake,2.96,7.0,high,low
621,3,choice,22,lettuce,3.06,8.0,low,high
622,3,choice,23,bacon,1.75,3.0,low,high
623,3,choice,24,beef,3.62,4.0,high,high
624,3,choice,25,toast,2.47,5.0,high,high
625,3,choice,26,cheese,2.93,3.0,high,low
626,3,choice,27,spinach,2.45,9.0,low,low
627,3,choice,28,shrimp,3.95,1.0,high,high
628,3,choice,29,tofu,1.35,6.0,low,high
629,3,choice,30,pear,0.78,5.0,high,high
630,3,choice,31,steak,3.41,5.0,high,low
631,3,choice,32,salmon,3.71,7.0,low,low
632,3,choice,33,toast,3.8,3.0,high,high
633,3,choice,34,cranberries,2.24,3.0,high,low
634,3,choice,35,burger,1.72,5.0,high,high
635,3,choice,36,shrimp,2.43,6.0,high,high
636,3,choice,37,candy,1.65,5.0,high,low
637,3,choice,38,spinach,1.78,7.0,low,low
638,3,choice,39,cookie,3.12,4.0,high,high
639,3,choice,40,steak,0.57,2.0,high,low
640,3,choice,41,peanut butter,1.04,8.0,low,low
641,3,choice,42,soda,3.76,1.0,low,high
642,3,choice,43,watermelon,0.89,2.0,low,high
643,3,choice,44,pasta,2.16,5.0,low,high
644,3,choice,45,ice cream,3.31,2.0,high,low
645,3,choice,46,granola,3.8,8.0,low,low
646,3,choice,47,rice,1.77,5.0,low,low
647,3,choice,48,bacon,3.87,7.0,low,high
648,3,choice,49,spinach,1.54,10.0,low,low
649,3,choice,50,eggs,3.56,2.0,low,low
650,3,choice,51,candy,0.95,10.0,high,low
651,3,choice,52,kale,1.71,8.0,low,high
652,3,choice,53,burger,1.04,6.0,high,high
653,3,choice,54,mango,3.31,7.0,low,low
654,3,choice,55,nuts,1.59,4.0,low,high
655,3,choice,56,shrimp,3.35,9.0,high,high
656,3,choice,57,donut,1.58,10.0,high,high
657,3,choice,58,carrot,1.17,7.0,high,high
658,3,choice,59,granola,3.9,10.0,low,low
659,3,choice,60,broccoli,2.56,1.0,low,high
660,3,choice,61,rice,0.61,6.0,low,low
661,3,choice,62,watermelon,2.42,8.0,low,high
662,3,choice,63,avocado,1.65,5.0,low,low
663,3,choice,64,cucumber,1.91,9.0,low,high
664,3,choice,65,avocado,1.33,3.0,low,low
665,3,choice,66,popcorn,3.93,1.0,low,low
666,3,choice,67,salmon,3.69,3.0,low,low
667,3,choice,68,peach,3.21,10.0,high,low
668,3,choice,69,bacon,3.49,10.0,low,high
669,3,choice,70,toast,1.46,6.0,high,high
670,3,choice,71,waffles,0.58,3.0,low,low
671,3,choice,72,pear,1.08,9.0,high,high
672,3,choice,73,eggs,3.28,10.0,low,low
673,3,choice,74,pear,3.58,5.0,high,high
674,3,choice,75,grapes,1.97,8.0,high,high
675,4,health,1,chocolate,1.04,2.0,high,high
676,4,health,2,peach,0.52,1.0,high,low
677,4,health,3,rice,2.71,6.0,low,low
678,4,health,4,donut,1.18,9.0,high,high
679,4,health,5,cereal,3.91,3.0,high,high
680,4,health,6,yogurt,2.02,9.0,low,high
681,4,health,7,bacon,1.66,1.0,low,high
682,4,health,8,carrot,2.26,5.0,high,high
683,4,health,9,chocolate,3.97,3.0,high,high
684,4,health,10,oatmeal,2.45,1.0,high,low
685,4,health,11,cheese,3.56,8.0,high,low
686,4,health,12,cake,3.15,7.0,high,low
687,4,health,13,watermelon,0.93,1.0,low,high
688,4,health,14,carrot,1.52,2.0,high,high
689,4,health,15,donut,2.47,10.0,high,high
690,4,health,16,avocado,2.29,10.0,low,low
691,4,health,17,peanut butter,1.14,9.0,low,low
692,4,health,18,granola,0.53,5.0,low,low
693,4,health,19,oatmeal,2.94,1.0,high,low
694,4,health,20,ice cream,3.24,3.0,high,low
695,4,health,21,candy,0.66,7.0,high,low
696,4,health,22,donut,2.0,1.0,high,high
697,4,health,23,nuts,3.52,5.0,low,high
698,4,health,24,bacon,2.73,3.0,low,high
699,4,health,25,granola,1.13,4.0,low,low
700,4,health,26,toast,1.82,2.0,high,high
701,4,health,27,avocado,3.63,9.0,low,low
702,4,health,28,kale,2.8,3.0,low,high
703,4,health,29,bacon,1.32,10.0,low,high
704,4,health,30,rice,1.71,6.0,low,low
705,4,health,31,chocolate,3.4,10.0,high,high
706,4,health,32,watermelon,3.17,9.0,low,high
707,4,health,33,pear,3.92,9.0,high,high
708,4,health,34,cranberries,2.52,6.0,high,low
709,4,health,35,waffles,2.98,6.0,low,low
710,4,health,36,milk,2.07,9.0,low,high
711,4,health,37,kale,2.48,7.0,low,high
712,4,health,38,salmon,3.36,6.0,low,low
713,4,health,39,bacon,2.38,6.0,low,high
714,4,health,40,kale,3.44,4.0,low,high
715,4,health,41,salmon,2.38,5.0,low,low
716,4,health,42,bacon,2.27,10.0,low,high
717,4,health,43,toast,3.1,9.0,high,high
718,4,health,44,oatmeal,3.5,4.0,high,low
719,4,health,45,burger,1.64,3.0,high,high
720,4,health,46,grapes,2.14,4.0,high,high
721,4,health,47,steak,1.08,5.0,high,low
722,4,health,48,nuts,2.97,8.0,low,high
723,4,health,49,watermelon,0.76,7.0,low,high
724,4,health,50,spinach,0.82,10.0,low,low
725,4,health,51,onion rings,2.63,1.0,low,low
726,4,health,52,apple,0.68,4.0,high,low
727,4,health,53,soda,1.12,8.0,low,high
728,4,health,54,shrimp,2.08,10.0,high,high
729,4,health,55,yogurt,0.93,10.0,low,high
730,4,health,56,peach,2.9,8.0,high,low
731,4,health,57,fries,,,low,high
732,4,health,58,peach,2.66,6.0,high,low
733,4,health,59,oatmeal,3.56,7.0,high,low
734,4,health,60,watermelon,2.29,10.0,low,high
735,4,health,61,spinach,3.12,1.0,low,low
736,4,health,62,soda,0.53,5.0,low,high
737,4,health,63,spinach,0.57,6.0,low,low
738,4,health,64,turkey,0.86,8.0,high,low
739,4,health,65,avocado,0.84,6.0,low,low
740,4,health,66,bacon,,,low,high
741,4,health,67,chicken,2.95,9.0,low,low
742,4,health,68,peach,1.02,8.0,high,low
743,4,health,69,pear,2.91,5.0,high,high
744,4,health,70,milk,2.78,10.0,low,high
745,4,health,71,cookie,1.58,8.0,high,high
746,4,health,72,avocado,1.3,5.0,low,low
747,4,health,73,toast,0.6,10.0,high,high
748,4,health,74,oatmeal,1.6,7.0,high,low
749,4,health,75,mango,2.24,8.0,low,low
750,4,taste,1,syrup,0.52,9.0,low,low
751,4,taste,2,pear,3.0,1.0,high,high
752,4,taste,3,rice,1.26,9.0,low,low
753,4,taste,4,onion rings,2.73,8.0,low,low
754,4,taste,5,cranberries,2.49,3.0,high,low
755,4,taste,6,nuts,2.61,5.0,low,high
756,4,taste,7,steak,2.57,6.0,high,low
757,4,taste,8,cereal,3.01,10.0,high,high
758,4,taste,9,cranberries,2.72,2.0,high,low
759,4,taste,10,carrot,2.35,6.0,high,high
760,4,taste,11,beans,0.56,8.0,low,high
761,4,taste,12,fries,1.04,3.0,low,high
762,4,taste,13,fries,0.74,7.0,low,high
763,4,taste,14,syrup,,,low,low
764,4,taste,15,milk,1.52,2.0,low,high
765,4,taste,16,nuts,1.56,4.0,low,high
766,4,taste,17,kale,1.74,3.0,low,high
767,4,taste,18,burger,3.5,9.0,high,high
768,4,taste,19,yogurt,1.05,2.0,low,high
769,4,taste,20,bacon,3.37,10.0,low,high
770,4,taste,21,beef,2.16,3.0,high,high
771,4,taste,22,salmon,3.43,5.0,low,low
772,4,taste,23,steak,1.7,3.0,high,low
773,4,taste,24,milk,2.07,10.0,low,high
774,4,taste,25,kale,3.04,5.0,low,high
775,4,taste,26,turkey,2.77,3.0,high,low
776,4,taste,27,spinach,3.03,6.0,low,low
777,4,taste,28,avocado,3.66,6.0,low,low
778,4,taste,29,shrimp,0.77,8.0,high,high
779,4,taste,30,pear,0.82,5.0,high,high
780,4,taste,31,pizza,2.31,8.0,high,low
781,4,taste,32,chicken,0.89,2.0,low,low
782,4,taste,33,pear,0.7,7.0,high,high
783,4,taste,34,grapes,1.57,1.0,high,high
784,4,taste,35,popcorn,2.21,9.0,low,low
785,4,taste,36,grapes,2.47,7.0,high,high
786,4,taste,37,broccoli,,,low,high
787,4,taste,38,spinach,1.31,1.0,low,low
788,4,taste,39,shrimp,1.34,8.0,high,high
789,4,taste,40,mango,0.85,9.0,low,low
790,4,taste,41,lettuce,2.36,10.0,low,high
791,4,taste,42,beans,1.11,6.0,low,high
792,4,taste,43,cereal,3.43,10.0,high,high
793,4,taste,44,donut,0.71,7.0,high,high
794,4,taste,45,kale,1.08,8.0,low,high
795,4,taste,46,watermelon,1.55,1.0,low,high
796,4,taste,47,avocado,1.28,3.0,low,low
797,4,taste,48,rice,2.85,9.0,low,low
798,4,taste,49,apple,1.03,3.0,high,low
799,4,taste,50,watermelon,1.79,9.0,low,high
800,4,taste,51,turkey,0.91,9.0,high,low
801,4,taste,52,donut,2.89,6.0,high,high
802,4,taste,53,cookie,1.89,8.0,high,high
803,4,taste,54,beef,0.92,5.0,high,high
804,4,taste,55,popcorn,1.68,8.0,low,low
805,4,taste,56,burger,1.93,5.0,high,high
806,4,taste,57,peanut butter,1.47,3.0,low,low
807,4,taste,58,syrup,2.94,10.0,low,low
808,4,taste,59,onion rings,3.52,10.0,low,low
809,4,taste,60,pizza,2.48,10.0,high,low
810,4,taste,61,shrimp,3.03,7.0,high,high
811,4,taste,62,beans,2.83,3.0,low,high
812,4,taste,63,peanut butter,0.67,9.0,low,low
813,4,taste,64,avocado,3.8,6.0,low,low
814,4,taste,65,cereal,1.93,3.0,high,high
815,4,taste,66,milk,3.35,10.0,low,high
816,4,taste,67,toast,2.72,5.0,high,high
817,4,taste,68,burger,1.44,1.0,high,high
818,4,taste,69,grapes,2.88,4.0,high,high
819,4,taste,70,cucumber,0.51,6.0,low,high
820,4,taste,71,eggs,1.87,2.0,low,low
821,4,taste,72,cranberries,1.83,8.0,high,low
822,4,taste,73,beans,3.46,7.0,low,high
823,4,taste,74,toast,2.68,9.0,high,high
824,4,taste,75,chicken,2.2,5.0,low,low
825,4,choice,1,tofu,2.32,8.0,low,high
826,4,choice,2,bacon,1.71,3.0,low,high
827,4,choice,3,steak,2.13,2.0,high,low
828,4,choice,4,shrimp,2.22,2.0,high,high
829,4,choice,5,avocado,0.51,5.0,low,low
830,4,choice,6,burger,2.18,1.0,high,high
831,4,choice,7,watermelon,0.53,9.0,low,high
832,4,choice,8,broccoli,3.54,7.0,low,high
833,4,choice,9,beef,3.93,3.0,high,high
834,4,choice,10,cranberries,1.28,2.0,high,low
835,4,choice,11,soda,3.3,6.0,low,high
836,4,choice,12,lettuce,3.06,1.0,low,high
837,4,choice,13,oatmeal,,,high,low
838,4,choice,14,shrimp,0.64,2.0,high,high
839,4,choice,15,apple,1.1,9.0,high,low
840,4,choice,16,onion rings,0.56,5.0,low,low
841,4,choice,17,chicken,1.49,7.0,low,low
842,4,choice,18,popcorn,3.83,8.0,low,low
843,4,choice,19,tofu,3.68,6.0,low,high
844,4,choice,20,granola,2.94,9.0,low,low
845,4,choice,21,shrimp,0.77,8.0,high,high
846,4,choice,22,yogurt,3.64,9.0,low,high
847,4,choice,23,salmon,3.19,5.0,low,low
848,4,choice,24,pizza,1.78,4.0,high,low
849,4,choice,25,cookie,3.82,3.0,high,high
850,4,choice,26,rice,1.24,7.0,low,low
851,4,choice,27,cake,,,high,low
852,4,choice,28,cucumber,1.0,4.0,low,high
853,4,choice,29,mango,1.91,4.0,low,low
854,4,choice,30,lettuce,3.16,5.0,low,high
855,4,choice,31,beef,0.67,6.0,high,high
856,4,choice,32,carrot,3.06,2.0,high,high
857,4,choice,33,peach,1.62,6.0,high,low
858,4,choice,34,lettuce,1.47,4.0,low,high
859,4,choice,35,soda,2.55,5.0,low,high
860,4,choice,36,steak,2.42,2.0,high,low
861,4,choice,37,cake,1.83,2.0,high,low
862,4,choice,38,cookie,2.07,5.0,high,high
863,4,choice,39,cranberries,1.41,2.0,high,low
864,4,choice,40,spinach,2.52,5.0,low,low
865,4,choice,41,granola,0.85,8.0,low,low
866,4,choice,42,grapes,3.83,9.0,high,high
867,4,choice,43,cucumber,2.98,2.0,low,high
868,4,choice,44,cucumber,3.87,8.0,low,high
869,4,choice,45,cookie,2.73,3.0,high,high
870,4,choice,46,yogurt,1.9,8.0,low,high
871,4,choice,47,toast,3.97,3.0,high,high
872,4,choice,48,milk,1.07,5.0,low,high
873,4,choice,49,cucumber,2.62,2.0,low,high
874,4,choice,50,cucumber,1.21,10.0,low,high
875,4,choice,51,tofu,3.59,1.0,low,high
876,4,choice,52,pizza,0.89,7.0,high,low
877,4,choice,53,peanut butter,2.99,5.0,low,low
878,4,choice,54,tofu,0.82,3.0,low,high
879,4,choice,55,chicken,1.31,7.0,low,low
880,4,choice,56,cranberries,1.71,4.0,high,low
881,4,choice,57,lettuce,1.31,1.0,low,high
882,4,choice,58,shrimp,1.63,8.0,high,high
883,4,choice,59,cucumber,2.26,9.0,low,high
884,4,choice,60,ice cream,2.11,9.0,high,low
885,4,choice,61,popcorn,3.91,8.0,low,low
886,4,choice,62,candy,3.72,8.0,high,low
887,4,choice,63,popcorn,0.87,3.0,low,low
888,4,choice,64,rice,3.27,7.0,low,low
889,4,choice,65,beans,1.76,8.0,low,high
890,4,choice,66,bacon,1.98,5.0,low,high
891,4,choice,67,oatmeal,3.76,1.0,high,low
892,4,choice,68,burger,3.63,10.0,high,high
893,4,choice,69,kale,0.95,3.0,low,high
894,4,choice,70,bacon,2.47,1.0,low,high
895,4,choice,71,fries,2.46,9.0,low,high
896,4,choice,72,donut,3.21,9.0,high,high
897,4,choice,73,burger,2.49,1.0,high,high
898,4,choice,74,grapes,0.77,8.0,high,high
899,4,choice,75,eggs,3.53,8.0,low,low
900,5,health,1,cranberries,3.13,9.0,high,low
901,5,health,2,tofu,1.67,2.0,low,high
902,5,health,3,bacon,3.9,5.0,low,high
903,5,health,4,cheese,2.8,5.0,high,low
904,5,health,5,cheese,3.8,8.0,high,low
905,5,health,6,cookie,2.19,10.0,high,high
906,5,health,7,kale,3.74,9.0,low,high
907,5,health,8,lettuce,1.83,7.0,low,high
908,5,health,9,popcorn,2.78,9.0,low,low
909,5,health,10,cranberries,0.91,6.0,high,low
910,5,health,11,popcorn,1.52,4.0,low,low
911,5,health,12,donut,0.7,10.0,high,high
912,5,health,13,tofu,2.81,3.0,low,high
913,5,health,14,grapes,0.87,8.0,high,high
914,5,health,15,cake,1.19,5.0,high,low
915,5,health,16,peach,0.81,4.0,high,low
916,5,health,17,onion rings,3.59,6.0,low,low
917,5,health,18,lettuce,2.05,9.0,low,high
918,5,health,19,carrot,2.57,1.0,high,high
919,5,health,20,shrimp,2.52,5.0,high,high
920,5,health,21,cucumber,1.17,2.0,low,high
921,5,health,22,shrimp,2.14,10.0,high,high
922,5,health,23,granola,3.89,5.0,low,low
923,5,health,24,ice cream,2.5,4.0,high,low
924,5,health,25,avocado,0.88,8.0,low,low
925,5,health,26,lettuce,2.94,10.0,low,high
926,5,health,27,apple,3.3,5.0,high,low
927,5,health,28,pasta,1.88,10.0,low,high
928,5,health,29,cucumber,1.08,5.0,low,high
929,5,health,30,broccoli,1.74,2.0,low,high
930,5,health,31,shrimp,3.85,8.0,high,high
931,5,health,32,burger,3.72,5.0,high,high
932,5,health,33,avocado,1.86,7.0,low,low
933,5,health,34,cereal,1.45,5.0,high,high
934,5,health,35,peanut butter,1.0,6.0,low,low
935,5,health,36,broccoli,3.56,7.0,low,high
936,5,health,37,eggs,3.03,7.0,low,low
937,5,health,38,syrup,1.5,9.0,low,low
938,5,health,39,yogurt,2.86,6.0,low,high
939,5,health,40,oatmeal,3.24,4.0,high,low
940,5,health,41,bacon,1.99,4.0,low,high
941,5,health,42,spinach,2.66,5.0,low,low
942,5,health,43,grapes,3.24,2.0,high,high
943,5,health,44,rice,3.17,2.0,low,low
944,5,health,45,carrot,3.92,5.0,high,high
945,5,health,46,broccoli,1.27,8.0,low,high
946,5,health,47,toast,1.34,3.0,high,high
947,5,health,48,pear,3.52,10.0,high,high
948,5,health,49,popcorn,3.89,2.0,low,low
949,5,health,50,mango,2.0,4.0,low,low
950,5,health,51,syrup,2.74,7.0,low,low
951,5,health,52,kale,3.79,2.0,low,high
952,5,health,53,cranberries,3.83,7.0,high,low
953,5,health,54,peanut butter,0.89,9.0,low,low
954,5,health,55,watermelon,2.92,5.0,low,high
955,5,health,56,beef,1.96,4.0,high,high
956,5,health,57,cucumber,3.71,7.0,low,high
957,5,health,58,banana,1.02,8.0,low,low
958,5,health,59,pasta,3.91,9.0,low,high
959,5,health,60,broccoli,3.74,1.0,low,high
960,5,health,61,cranberries,0.84,6.0,high,low
961,5,health,62,tofu,0.72,3.0,low,high
962,5,health,63,chicken,1.26,1.0,low,low
963,5,health,64,onion rings,0.84,2.0,low,low
964,5,health,65,bacon,3.21,10.0,low,high
965,5,health,66,mango,2.95,5.0,low,low
966,5,health,67,candy,2.36,3.0,high,low
967,5,health,68,eggs,3.18,6.0,low,low
968,5,health,69,nuts,3.08,5.0,low,high
969,5,health,70,watermelon,1.77,2.0,low,high
970,5,health,71,syrup,3.28,4.0,low,low
971,5,health,72,chicken,0.91,9.0,low,low
972,5,health,73,popcorn,1.51,6.0,low,low
973,5,health,74,apple,0.64,10.0,high,low
974,5,health,75,pizza,1.93,10.0,high,low
975,5,taste,1,beans,0.59,5.0,low,high
976,5,taste,2,cranberries,0.81,6.0,high,low
977,5,taste,3,chicken,3.53,3.0,low,low
978,5,taste,4,eggs,1.51,5.0,low,low
979,5,taste,5,syrup,1.96,5.0,low,low
980,5,taste,6,mango,1.42,7.0,low,low
981,5,taste,7,chicken,3.65,1.0,low,low
982,5,taste,8,tofu,2.91,4.0,low,high
983,5,taste,9,beans,1.12,3.0,low,high
984,5,taste,10,onion rings,1.28,3.0,low,low
985,5,taste,11,toast,2.49,1.0,high,high
986,5,taste,12,carrot,2.94,6.0,high,high
987,5,taste,13,nuts,2.1,6.0,low,high
988,5,taste,14,yogurt,3.31,8.0,low,high
989,5,taste,15,spinach,3.44,10.0,low,low
990,5,taste,16,watermelon,2.12,8.0,low,high
991,5,taste,17,watermelon,1.66,9.0,low,high
992,5,taste,18,nuts,1.81,9.0,low,high
993,5,taste,19,turkey,2.4,8.0,high,low
994,5,taste,20,cookie,0.6,6.0,high,high
995,5,taste,21,spinach,2.04,8.0,low,low
996,5,taste,22,shrimp,3.64,4.0,high,high
997,5,taste,23,granola,2.49,8.0,low,low
998,5,taste,24,mango,0.91,7.0,low,low
999,5,taste,25,watermelon,3.23,8.0,low,high
1000,5,taste,26,ice cream,1.68,4.0,high,low
1001,5,taste,27,salmon,3.49,4.0,low,low
1002,5,taste,28,spinach,3.87,5.0,low,low
1003,5,taste,29,yogurt,0.54,9.0,low,high
1004,5,taste,30,kale,2.31,7.0,low,high
1005,5,taste,31,bacon,3.46,4.0,low,high
1006,5,taste,32,peach,1.42,4.0,high,low
1007,5,taste,33,lettuce,3.66,10.0,low,high
1008,5,taste,34,peanut butter,0.92,9.0,low,low
1009,5,taste,35,rice,0.77,1.0,low,low
1010,5,taste,36,burger,2.1,1.0,high,high
1011,5,taste,37,granola,1.05,4.0,low,low
1012,5,taste,38,fries,0.63,5.0,low,high
1013,5,taste,39,carrot,3.62,5.0,high,high
1014,5,taste,40,salmon,2.07,5.0,low,low
1015,5,taste,41,avocado,0.56,7.0,low,low
1016,5,taste,42,milk,2.25,5.0,low,high
1017,5,taste,43,donut,3.94,10.0,high,high
1018,5,taste,44,carrot,2.66,1.0,high,high
1019,5,taste,45,popcorn,3.34,4.0,low,low
1020,5,taste,46,rice,0.6,1.0,low,low
1021,5,taste,47,turkey,1.07,5.0,high,low
1022,5,taste,48,beef,0.53,8.0,high,high
1023,5,taste,49,peach,1.57,5.0,high,low
1024,5,taste,50,waffles,3.41,4.0,low,low
1025,5,taste,51,shrimp,0.62,10.0,high,high
1026,5,taste,52,bacon,3.45,8.0,low,high
1027,5,taste,53,cake,3.82,8.0,high,low
1028,5,taste,54,popcorn,1.6,3.0,low,low
1029,5,taste,55,lettuce,2.03,1.0,low,high
1030,5,taste,56,cookie,0.98,5.0,high,high
1031,5,taste,57,peanut butter,1.65,3.0,low,low
1032,5,taste,58,cheese,3.64,1.0,high,low
1033,5,taste,59,eggs,1.0,5.0,low,low
1034,5,taste,60,cucumber,3.81,10.0,low,high
1035,5,taste,61,syrup,1.65,9.0,low,low
1036,5,taste,62,yogurt,2.27,8.0,low,high
1037,5,taste,63,burger,3.02,10.0,high,high
1038,5,taste,64,carrot,2.62,5.0,high,high
1039,5,taste,65,bacon,1.33,5.0,low,high
1040,5,taste,66,peach,2.01,5.0,high,low
1041,5,taste,67,avocado,3.66,2.0,low,low
1042,5,taste,68,yogurt,2.4,8.0,low,high
1043,5,taste,69,onion rings,1.07,4.0,low,low
1044,5,taste,70,chocolate,2.32,4.0,high,high
1045,5,taste,71,pizza,1.88,4.0,high,low
1046,5,taste,72,donut,1.71,4.0,high,high
1047,5,taste,73,waffles,3.75,9.0,low,low
1048,5,taste,74,kale,2.85,3.0,low,high
1049,5,taste,75,ice cream,1.3,8.0,high,low
1050,5,choice,1,syrup,2.61,2.0,low,low
1051,5,choice,2,pasta,2.29,2.0,low,high
1052,5,choice,3,kale,1.02,7.0,low,high
1053,5,choice,4,watermelon,1.27,3.0,low,high
1054,5,choice,5,shrimp,3.7,2.0,high,high
1055,5,choice,6,cookie,2.05,2.0,high,high
1056,5,choice,7,watermelon,0.8,3.0,low,high
1057,5,choice,8,turkey,2.11,9.0,high,low
1058,5,choice,9,ice cream,,,high,low
1059,5,choice,10,broccoli,3.73,6.0,low,high
1060,5,choice,11,waffles,3.92,8.0,low,low
1061,5,choice,12,burger,3.07,10.0,high,high
1062,5,choice,13,milk,2.22,10.0,low,high
1063,5,choice,14,eggs,3.33,9.0,low,low
1064,5,choice,15,steak,3.3,6.0,high,low
1065,5,choice,16,candy,2.12,5.0,high,low
1066,5,choice,17,chocolate,0.51,7.0,high,high
1067,5,choice,18,pear,1.2,4.0,high,high
1068,5,choice,19,milk,3.34,4.0,low,high
1069,5,choice,20,chocolate,2.97,8.0,high,high
1070,5,choice,21,granola,3.37,1.0,low,low
1071,5,choice,22,shrimp,1.24,5.0,high,high
1072,5,choice,23,grapes,3.88,6.0,high,high
1073,5,choice,24,toast,2.59,2.0,high,high
1074,5,choice,25,fries,1.14,7.0,low,high
1075,5,choice,26,peanut butter,1.85,8.0,low,low
1076,5,choice,27,cereal,1.78,5.0,high,high
1077,5,choice,28,eggs,3.55,4.0,low,low
1078,5,choice,29,cereal,1.49,9.0,high,high
1079,5,choice,30,pizza,2.51,5.0,high,low
1080,5,choice,31,cucumber,3.64,5.0,low,high
1081,5,choice,32,grapes,3.99,3.0,high,high
1082,5,choice,33,yogurt,1.28,8.0,low,high
1083,5,choice,34,cheese,2.08,1.0,high,low
1084,5,choice,35,cookie,3.24,2.0,high,high
1085,5,choice,36,beans,3.79,8.0,low,high
1086,5,choice,37,grapes,3.31,5.0,high,high
1087,5,choice,38,popcorn,0.64,5.0,low,low
1088,5,choice,39,ice cream,1.18,1.0,high,low
1089,5,choice,40,beans,0.71,4.0,low,high
1090,5,choice,41,banana,3.82,10.0,low,low
1091,5,choice,42,waffles,1.14,10.0,low,low
1092,5,choice,43,banana,3.61,6.0,low,low
1093,5,choice,44,kale,3.97,3.0,low,high
1094,5,choice,45,beans,3.05,6.0,low,high
1095,5,choice,46,toast,1.85,5.0,high,high
1096,5,choice,47,salmon,2.35,3.0,low,low
1097,5,choice,48,avocado,3.22,8.0,low,low
1098,5,choice,49,onion rings,2.5,5.0,low,low
1099,5,choice,50,turkey,1.31,8.0,high,low
1100,5,choice,51,granola,1.33,4.0,low,low
1101,5,choice,52,tofu,2.49,10.0,low,high
1102,5,choice,53,onion rings,1.33,8.0,low,low
1103,5,choice,54,peach,1.22,5.0,high,low
1104,5,choice,55,cereal,2.19,8.0,high,high
1105,5,choice,56,kale,1.24,7.0,low,high
1106,5,choice,57,tofu,0.83,2.0,low,high
1107,5,choice,58,spinach,2.84,5.0,low,low
1108,5,choice,59,granola,1.32,1.0,low,low
1109,5,choice,60,cake,2.03,1.0,high,low
1110,5,choice,61,salmon,1.49,2.0,low,low
1111,5,choice,62,eggs,0.75,1.0,low,low
1112,5,choice,63,syrup,2.7,10.0,low,low
1113,5,choice,64,chicken,1.27,2.0,low,low
1114,5,choice,65,cranberries,1.55,6.0,high,low
1115,5,choice,66,cereal,2.34,5.0,high,high
1116,5,choice,67,yogurt,0.68,1.0,low,high
1117,5,choice,68,spinach,3.42,5.0,low,low
1118,5,choice,69,soda,1.7,7.0,low,high
1119,5,choice,70,candy,3.02,10.0,high,low
1120,5,choice,71,cake,2.21,9.0,high,low
1121,5,choice,72,cheese,3.49,3.0,high,low
1122,5,choice,73,peach,2.1,6.0,high,low
1123,5,choice,74,grapes,1.2,10.0,high,high
1124,5,choice,75,spinach,1.41,3.0,low,low
1125,6,health,1,burger,3.64,10.0,high,high
1126,6,health,2,onion rings,1.14,8.0,low,low
1127,6,health,3,pizza,1.11,1.0,high,low
1128,6,health,4,popcorn,3.97,4.0,low,low
1129,6,health,5,steak,0.72,3.0,high,low
1130,6,health,6,chocolate,2.71,5.0,high,high
1131,6,health,7,carrot,0.93,2.0,high,high
1132,6,health,8,apple,3.72,5.0,high,low
1133,6,health,9,lettuce,0.73,5.0,low,high
1134,6,health,10,turkey,0.77,2.0,high,low
1135,6,health,11,mango,3.9,7.0,low,low
1136,6,health,12,popcorn,2.47,1.0,low,low
1137,6,health,13,kale,3.83,8.0,low,high
1138,6,health,14,ice cream,2.78,2.0,high,low
1139,6,health,15,peach,3.71,9.0,high,low
1140,6,health,16,cheese,2.04,3.0,high,low
1141,6,health,17,cookie,0.79,9.0,high,high
1142,6,health,18,shrimp,2.12,1.0,high,high
1143,6,health,19,pear,0.6,8.0,high,high
1144,6,health,20,pasta,3.11,7.0,low,high
1145,6,health,21,spinach,2.01,3.0,low,low
1146,6,health,22,donut,3.55,6.0,high,high
1147,6,health,23,salmon,0.8,10.0,low,low
1148,6,health,24,bacon,1.4,6.0,low,high
1149,6,health,25,avocado,3.5,1.0,low,low
1150,6,health,26,bacon,1.37,3.0,low,high
1151,6,health,27,broccoli,1.33,4.0,low,high
1152,6,health,28,milk,1.91,4.0,low,high
1153,6,health,29,eggs,2.72,1.0,low,low
1154,6,health,30,apple,2.07,9.0,high,low
1155,6,health,31,oatmeal,3.42,7.0,high,low
1156,6,health,32,donut,0.59,4.0,high,high
1157,6,health,33,nuts,,,low,high
1158,6,health,34,soda,1.21,3.0,low,high
1159,6,health,35,lettuce,1.83,7.0,low,high
1160,6,health,36,pizza,3.95,5.0,high,low
1161,6,health,37,ice cream,2.33,6.0,high,low
1162,6,health,38,fries,2.44,8.0,low,high
1163,6,health,39,mango,3.02,1.0,low,low
1164,6,health,40,peach,0.64,5.0,high,low
1165,6,health,41,beef,1.59,9.0,high,high
1166,6,health,42,eggs,3.1,8.0,low,low
1167,6,health,43,turkey,1.77,1.0,high,low
1168,6,health,44,toast,3.37,4.0,high,high
1169,6,health,45,salmon,2.24,2.0,low,low
1170,6,health,46,kale,2.21,6.0,low,high
1171,6,health,47,cucumber,1.93,6.0,low,high
1172,6,health,48,apple,3.24,9.0,high,low
1173,6,health,49,shrimp,2.75,10.0,high,high
1174,6,health,50,shrimp,0.74,7.0,high,high
1175,6,health,51,chicken,1.62,3.0,low,low
1176,6,health,52,steak,0.51,8.0,high,low
1177,6,health,53,syrup,1.4,2.0,low,low
1178,6,health,54,steak,3.58,2.0,high,low
1179,6,health,55,ice cream,1.37,9.0,high,low
1180,6,health,56,chicken,0.84,5.0,low,low
1181,6,health,57,beef,3.3,3.0,high,high
1182,6,health,58,peanut butter,3.97,7.0,low,low
1183,6,health,59,syrup,3.07,6.0,low,low
1184,6,health,60,mango,,,low,low
1185,6,health,61,rice,1.55,2.0,low,low
1186,6,health,62,turkey,0.91,6.0,high,low
1187,6,health,63,tofu,0.57,8.0,low,high
1188,6,health,64,watermelon,3.5,8.0,low,high
1189,6,health,65,bacon,1.75,5.0,low,high
1190,6,health,66,apple,0.57,2.0,high,low
1191,6,health,67,yogurt,1.94,8.0,low,high
1192,6,health,68,carrot,3.77,5.0,high,high
1193,6,health,69,nuts,3.26,1.0,low,high
1194,6,health,70,banana,3.12,5.0,low,low
1195,6,health,71,chicken,3.93,2.0,low,low
1196,6,health,72,yogurt,2.13,7.0,low,high
1197,6,health,73,apple,0.77,6.0,high,low
1198,6,health,74,cranberries,3.28,9.0,high,low
1199,6,health,75,salmon,2.96,6.0,low,low
1200,6,taste,1,toast,2.39,4.0,high,high
1201,6,taste,2,beans,1.61,5.0,low,high
1202,6,taste,3,burger,2.23,6.0,high,high
1203,6,taste,4,candy,2.39,8.0,high,low
1204,6,taste,5,donut,1.65,10.0,high,high
1205,6,taste,6,cake,0.72,10.0,high,low
1206,6,taste,7,apple,3.06,9.0,high,low
1207,6,taste,8,waffles,2.29,3.0,low,low
1208,6,taste,9,yogurt,1.16,7.0,low,high
1209,6,taste,10,lettuce,1.14,10.0,low,high
1210,6,taste,11,bacon,3.25,4.0,low,high
1211,6,taste,12,avocado,1.17,1.0,low,low
1212,6,taste,13,cereal,2.85,5.0,high,high
1213,6,taste,14,avocado,3.94,9.0,low,low
1214,6,taste,15,kale,1.24,10.0,low,high
1215,6,taste,16,cookie,2.81,6.0,high,high
1216,6,taste,17,cucumber,2.68,9.0,low,high
1217,6,taste,18,cereal,3.66,6.0,high,high
1218,6,taste,19,turkey,1.24,7.0,high,low
1219,6,taste,20,eggs,2.17,4.0,low,low
1220,6,taste,21,cookie,2.14,4.0,high,high
1221,6,taste,22,carrot,1.66,1.0,high,high
1222,6,taste,23,granola,2.14,2.0,low,low
1223,6,taste,24,avocado,3.86,10.0,low,low
1224,6,taste,25,beans,3.85,1.0,low,high
1225,6,taste,26,turkey,1.81,9.0,high,low
1226,6,taste,27,yogurt,1.13,2.0,low,high
1227,6,taste,28,cookie,2.36,3.0,high,high
1228,6,taste,29,syrup,1.81,8.0,low,low
1229,6,taste,30,popcorn,3.11,8.0,low,low
1230,6,taste,31,kale,2.86,8.0,low,high
1231,6,taste,32,burger,1.33,2.0,high,high
1232,6,taste,33,cucumber,1.79,4.0,low,high
1233,6,taste,34,toast,2.16,3.0,high,high
1234,6,taste,35,cereal,3.55,3.0,high,high
1235,6,taste,36,cake,3.85,10.0,high,low
1236,6,taste,37,burger,1.03,10.0,high,high
1237,6,taste,38,ice cream,1.68,3.0,high,low
1238,6,taste,39,chocolate,1.0,10.0,high,high
1239,6,taste,40,eggs,3.13,7.0,low,low
1240,6,taste,41,turkey,1.29,1.0,high,low
1241,6,taste,42,steak,3.48,3.0,high,low
1242,6,taste,43,cheese,1.7,2.0,high,low
1243,6,taste,44,carrot,3.66,10.0,high,high
1244,6,taste,45,pasta,3.09,1.0,low,high
1245,6,taste,46,ice cream,2.79,2.0,high,low
1246,6,taste,47,yogurt,2.0,8.0,low,high
1247,6,taste,48,beef,3.52,7.0,high,high
1248,6,taste,49,grapes,3.5,8.0,high,high
1249,6,taste,50,chicken,3.93,8.0,low,low
1250,6,taste,51,yogurt,3.66,6.0,low,high
1251,6,taste,52,chocolate,3.31,6.0,high,high
1252,6,taste,53,eggs,1.9,9.0,low,low
1253,6,taste,54,beef,1.42,1.0,high,high
1254,6,taste,55,eggs,1.58,9.0,low,low
1255,6,taste,56,chicken,3.32,5.0,low,low
1256,6,taste,57,cereal,3.27,9.0,high,high
1257,6,taste,58,rice,1.32,8.0,low,low
1258,6,taste,59,salmon,2.23,5.0,low,low
1259,6,taste,60,beans,1.29,5.0,low,high
1260,6,taste,61,broccoli,0.75,5.0,low,high
1261,6,taste,62,tofu,2.1,5.0,low,high
1262,6,taste,63,steak,1.67,5.0,high,low
1263,6,taste,64,rice,2.08,10.0,low,low
1264,6,taste,65,lettuce,,,low,high
1265,6,taste,66,lettuce,1.2,2.0,low,high
1266,6,taste,67,fries,1.43,1.0,low,high
1267,6,taste,68,banana,2.62,6.0,low,low
1268,6,taste,69,tofu,3.92,1.0,low,high
1269,6,taste,70,milk,2.01,10.0,low,high
1270,6,taste,71,syrup,2.73,8.0,low,low
1271,6,taste,72,waffles,2.67,2.0,low,low
1272,6,taste,73,donut,0.92,3.0,high,high
1273,6,taste,74,cheese,2.4,4.0,high,low
1274,6,taste,75,turkey,3.07,10.0,high,low
1275,6,choice,1,donut,1.53,4.0,high,high
1276,6,choice,2,pear,2.23,2.0,high,high
1277,6,choice,3,pasta,3.24,6.0,low,high
1278,6,choice,4,lettuce,1.56,7.0,low,high
1279,6,choice,5,oatmeal,2.86,10.0,high,low
1280,6,choice,6,oatmeal,3.9,8.0,high,low
1281,6,choice,7,yogurt,,,low,high
1282,6,choice,8,chicken,2.72,10.0,low,low
1283,6,choice,9,chicken,1.39,1.0,low,low
1284,6,choice,10,pasta,1.23,4.0,low,high
1285,6,choice,11,avocado,2.79,1.0,low,low
1286,6,choice,12,yogurt,2.42,7.0,low,high
1287,6,choice,13,peach,3.66,5.0,high,low
1288,6,choice,14,eggs,3.83,8.0,low,low
1289,6,choice,15,beans,2.44,4.0,low,high
1290,6,choice,16,peach,3.63,4.0,high,low
1291,6,choice,17,popcorn,2.35,6.0,low,low
1292,6,choice,18,donut,1.94,2.0,high,high
1293,6,choice,19,donut,2.16,5.0,high,high
1294,6,choice,20,onion rings,3.49,5.0,low,low
1295,6,choice,21,shrimp,3.47,10.0,high,high
1296,6,choice,22,cheese,3.49,7.0,high,low
1297,6,choice,23,soda,2.35,3.0,low,high
1298,6,choice,24,salmon,2.91,7.0,low,low
1299,6,choice,25,peanut butter,2.49,8.0,low,low
1300,6,choice,26,lettuce,2.13,9.0,low,high
1301,6,choice,27,syrup,3.26,1.0,low,low
1302,6,choice,28,avocado,0.87,1.0,low,low
1303,6,choice,29,cereal,2.05,7.0,high,high
1304,6,choice,30,broccoli,2.73,9.0,low,high
1305,6,choice,31,apple,3.87,6.0,high,low
1306,6,choice,32,toast,3.7,3.0,high,high
1307,6,choice,33,steak,3.92,2.0,high,low
1308,6,choice,34,avocado,0.78,1.0,low,low
1309,6,choice,35,candy,1.2,8.0,high,low
1310,6,choice,36,soda,3.07,8.0,low,high
1311,6,choice,37,banana,1.08,1.0,low,low
1312,6,choice,38,cranberries,1.9,9.0,high,low
1313,6,choice,39,cereal,2.31,10.0,high,high
1314,6,choice,40,cookie,1.92,8.0,high,high
1315,6,choice,41,apple,3.5,10.0,high,low
1316,6,choice,42,peanut butter,3.21,3.0,low,low
1317,6,choice,43,fries,1.53,4.0,low,high
1318,6,choice,44,steak,3.4,6.0,high,low
1319,6,choice,45,cookie,2.66,9.0,high,high
1320,6,choice,46,peach,1.48,5.0,high,low
1321,6,choice,47,lettuce,3.88,8.0,low,high
1322,6,choice,48,pear,0.93,10.0,high,high
1323,6,choice,49,waffles,2.95,4.0,low,low
1324,6,choice,50,pasta,1.5,7.0,low,high
1325,6,choice,51,mango,2.18,9.0,low,low
1326,6,choice,52,candy,0.71,5.0,high,low
1327,6,choice,53,tofu,3.04,5.0,low,high
1328,6,choice,54,beans,3.15,1.0,low,high
1329,6,choice,55,avocado,3.9,7.0,low,low
1330,6,choice,56,popcorn,3.89,6.0,low,low
1331,6,choice,57,oatmeal,2.21,8.0,high,low
1332,6,choice,58,toast,1.25,10.0,high,high
1333,6,choice,59,fries,1.43,3.0,low,high
1334,6,choice,60,salmon,2.88,2.0,low,low
1335,6,choice,61,chocolate,1.72,9.0,high,high
1336,6,choice,62,peanut butter,3.39,1.0,low,low
1337,6,choice,63,watermelon,1.99,8.0,low,high
1338,6,choice,64,salmon,3.84,4.0,low,low
1339,6,choice,65,pizza,0.6,3.0,high,low
1340,6,choice,66,grapes,2.73,8.0,high,high
1341,6,choice,67,avocado,3.65,10.0,low,low
1342,6,choice,68,shrimp,2.28,3.0,high,high
1343,6,choice,69,chocolate,2.12,8.0,high,high
1344,6,choice,70,beef,0.94,5.0,high,high
1345,6,choice,71,nuts,2.79,6.0,low,high
1346,6,choice,72,fries,3.52,3.0,low,high
1347,6,choice,73,avocado,2.56,3.0,low,low
1348,6,choice,74,onion rings,2.81,7.0,low,low
1349,6,choice,75,salmon,0.53,8.0,low,low
1350,7,health,1,yogurt,2.18,8.0,low,high
1351,7,health,2,beef,3.18,6.0,high,high
1352,7,health,3,cheese,3.27,7.0,high,low
1353,7,health,4,shrimp,2.65,8.0,high,high
1354,7,health,5,pear,2.53,5.0,high,high
1355,7,health,6,candy,3.56,9.0,high,low
1356,7,health,7,oatmeal,2.31,5.0,high,low
1357,7,health,8,toast,2.03,2.0,high,high
1358,7,health,9,pear,2.78,5.0,high,high
1359,7,health,10,avocado,1.24,3.0,low,low
1360,7,health,11,beef,0.93,7.0,high,high
1361,7,health,12,fries,3.08,10.0,low,high
1362,7,health,13,donut,3.17,6.0,high,high
1363,7,health,14,watermelon,1.36,10.0,low,high
1364,7,health,15,grapes,2.29,1.0,high,high
1365,7,health,16,pear,3.21,10.0,high,high
1366,7,health,17,avocado,0.5,2.0,low,low
1367,7,health,18,tofu,2.61,6.0,low,high
1368,7,health,19,onion rings,0.83,9.0,low,low
1369,7,health,20,spinach,1.61,6.0,low,low
1370,7,health,21,waffles,3.23,8.0,low,low
1371,7,health,22,eggs,3.75,4.0,low,low
1372,7,health,23,milk,2.4,9.0,low,high
1373,7,health,24,chocolate,0.88,5.0,high,high
1374,7,health,25,turkey,2.98,1.0,high,low
1375,7,health,26,syrup,2.42,7.0,low,low
1376,7,health,27,cereal,3.19,4.0,high,high
1377,7,health,28,chicken,2.91,8.0,low,low
1378,7,health,29,peanut butter,3.71,8.0,low,low
1379,7,health,30,nuts,1.43,4.0,low,high
1380,7,health,31,cheese,0.86,3.0,high,low
1381,7,health,32,nuts,2.78,6.0,low,high
1382,7,health,33,fries,0.8,3.0,low,high
1383,7,health,34,toast,2.82,10.0,high,high
1384,7,health,35,lettuce,0.66,6.0,low,high
1385,7,health,36,fries,1.72,1.0,low,high
1386,7,health,37,cheese,2.15,9.0,high,low
1387,7,health,38,cereal,3.88,7.0,high,high
1388,7,health,39,salmon,2.27,3.0,low,low
1389,7,health,40,apple,3.02,9.0,high,low
1390,7,health,41,chicken,3.08,4.0,low,low
1391,7,health,42,kale,3.61,6.0,low,high
1392,7,health,43,peanut butter,3.42,2.0,low,low
1393,7,health,44,granola,2.95,4.0,low,low
1394,7,health,45,broccoli,1.93,5.0,low,high
1395,7,health,46,steak,0.73,8.0,high,low
1396,7,health,47,pear,3.52,6.0,high,high
1397,7,health,48,nuts,1.08,6.0,low,high
1398,7,health,49,cake,3.68,2.0,high,low
1399,7,health,50,nuts,0.71,3.0,low,high
1400,7,health,51,cucumber,3.25,5.0,low,high
1401,7,health,52,cookie,2.36,6.0,high,high
1402,7,health,53,cake,1.71,2.0,high,low
1403,7,health,54,milk,3.61,10.0,low,high
1404,7,health,55,chocolate,0.78,1.0,high,high
1405,7,health,56,steak,1.62,4.0,high,low
1406,7,health,57,pear,1.05,3.0,high,high
1407,7,health,58,broccoli,2.3,7.0,low,high
1408,7,health,59,peach,3.04,9.0,high,low
1409,7,health,60,milk,3.34,7.0,low,high
1410,7,health,61,pasta,2.91,2.0,low,high
1411,7,health,62,carrot,2.18,4.0,high,high
1412,7,health,63,chocolate,0.67,1.0,high,high
1413,7,health,64,toast,2.72,3.0,high,high
1414,7,health,65,granola,0.62,9.0,low,low
1415,7,health,66,nuts,2.74,7.0,low,high
1416,7,health,67,fries,3.81,6.0,low,high
1417,7,health,68,soda,1.73,5.0,low,high
1418,7,health,69,mango,1.38,4.0,low,low
1419,7,health,70,waffles,3.39,10.0,low,low
1420,7,health,71,waffles,2.36,10.0,low,low
1421,7,health,72,waffles,1.7,3.0,low,low
1422,7,health,73,soda,0.82,9.0,low,high
1423,7,health,74,cranberries,0.54,7.0,high,low
1424,7,health,75,waffles,2.16,1.0,low,low
1425,7,taste,1,yogurt,2.28,7.0,low,high
1426,7,taste,2,waffles,1.54,3.0,low,low
1427,7,taste,3,milk,2.32,4.0,low,high
1428,7,taste,4,pear,3.16,4.0,high,high
1429,7,taste,5,bacon,1.55,2.0,low,high
1430,7,taste,6,carrot,3.97,5.0,high,high
1431,7,taste,7,turkey,3.78,2.0,high,low
1432,7,taste,8,apple,,,high,low
1433,7,taste,9,burger,3.82,1.0,high,high
1434,7,taste,10,banana,2.42,6.0,low,low
1435,7,taste,11,cucumber,3.7,9.0,low,high
1436,7,taste,12,beans,2.3,4.0,low,high
1437,7,taste,13,tofu,1.01,1.0,low,high
1438,7,taste,14,burger,2.58,2.0,high,high
1439,7,taste,15,lettuce,3.78,1.0,low,high
1440,7,taste,16,pizza,1.52,7.0,high,low
1441,7,taste,17,candy,3.85,8.0,high,low
1442,7,taste,18,beans,3.76,7.0,low,high
1443,7,taste,19,cheese,,,high,low
1444,7,taste,20,cucumber,3.59,6.0,low,high
1445,7,taste,21,pear,2.07,1.0,high,high
1446,7,taste,22,eggs,2.05,3.0,low,low
1447,7,taste,23,mango,1.52,7.0,low,low
1448,7,taste,24,beans,1.46,3.0,low,high
1449,7,taste,25,granola,0.53,8.0,low,low
1450,7,taste,26,burger,3.71,2.0,high,high
1451,7,taste,27,cheese,3.86,8.0,high,low
1452,7,taste,28,turkey,2.25,10.0,high,low
1453,7,taste,29,bacon,2.11,7.0,low,high
1454,7,taste,30,steak,2.05,2.0,high,low
1455,7,taste,31,granola,1.93,4.0,low,low
1456,7,taste,32,beans,2.38,5.0,low,high
1457,7,taste,33,pear,3.6,1.0,high,high
1458,7,taste,34,toast,0.83,4.0,high,high
1459,7,taste,35,avocado,1.36,5.0,low,low
1460,7,taste,36,chicken,0.93,7.0,low,low
1461,7,taste,37,tofu,2.45,10.0,low,high
1462,7,taste,38,watermelon,0.64,3.0,low,high
1463,7,taste,39,spinach,1.46,7.0,low,low
1464,7,taste,40,donut,2.35,4.0,high,high
1465,7,taste,41,tofu,2.31,7.0,low,high
1466,7,taste,42,banana,1.78,9.0,low,low
1467,7,taste,43,cookie,3.56,8.0,high,high
1468,7,taste,44,broccoli,2.77,9.0,low,high
1469,7,taste,45,chicken,1.85,2.0,low,low
1470,7,taste,46,spinach,0.97,3.0,low,low
1471,7,taste,47,avocado,1.61,5.0,low,low
1472,7,taste,48,turkey,3.41,6.0,high,low
1473,7,taste,49,avocado,1.35,4.0,low,low
1474,7,taste,50,burger,0.93,5.0,high,high
1475,7,taste,51,oatmeal,2.44,10.0,high,low
1476,7,taste,52,cereal,2.36,10.0,high,high
1477,7,taste,53,milk,2.65,5.0,low,high
1478,7,taste,54,turkey,3.06,5.0,high,low
1479,7,taste,55,yogurt,1.22,4.0,low,high
1480,7,taste,56,pizza,2.31,9.0,high,low
1481,7,taste,57,peanut butter,1.36,6.0,low,low
1482,7,taste,58,rice,1.74,5.0,low,low
1483,7,taste,59,chocolate,2.92,3.0,high,high
1484,7,taste,60,broccoli,3.24,2.0,low,high
1485,7,taste,61,turkey,3.53,3.0,high,low
1486,7,taste,62,cereal,1.22,8.0,high,high
1487,7,taste,63,cucumber,1.25,10.0,low,high
1488,7,taste,64,mango,0.86,9.0,low,low
1489,7,taste,65,chocolate,3.93,8.0,high,high
1490,7,taste,66,cookie,3.53,10.0,high,high
1491,7,taste,67,cranberries,3.99,2.0,high,low
1492,7,taste,68,soda,3.69,9.0,low,high
1493,7,taste,69,grapes,3.14,1.0,high,high
1494,7,taste,70,carrot,1.8,2.0,high,high
1495,7,taste,71,apple,0.67,6.0,high,low
1496,7,taste,72,pasta,2.1,8.0,low,high
1497,7,taste,73,nuts,0.72,8.0,low,high
1498,7,taste,74,ice cream,3.69,3.0,high,low
1499,7,taste,75,steak,0.97,1.0,high,low
1500,7,choice,1,chicken,1.47,8.0,low,low
1501,7,choice,2,milk,0.72,8.0,low,high
1502,7,choice,3,candy,2.17,8.0,high,low
1503,7,choice,4,avocado,3.34,6.0,low,low
1504,7,choice,5,banana,3.75,6.0,low,low
1505,7,choice,6,banana,1.08,5.0,low,low
1506,7,choice,7,cranberries,3.72,7.0,high,low
1507,7,choice,8,mango,3.73,2.0,low,low
1508,7,choice,9,kale,3.34,4.0,low,high
1509,7,choice,10,yogurt,1.06,7.0,low,high
1510,7,choice,11,waffles,2.3,10.0,low,low
1511,7,choice,12,ice cream,3.92,8.0,high,low
1512,7,choice,13,candy,2.88,2.0,high,low
1513,7,choice,14,grapes,3.24,1.0,high,high
1514,7,choice,15,mango,2.23,7.0,low,low
1515,7,choice,16,cheese,1.14,1.0,high,low
1516,7,choice,17,burger,3.84,4.0,high,high
1517,7,choice,18,peach,3.87,1.0,high,low
1518,7,choice,19,waffles,1.69,5.0,low,low
1519,7,choice,20,cranberries,2.26,3.0,high,low
1520,7,choice,21,eggs,0.88,6.0,low,low
1521,7,choice,22,shrimp,1.38,10.0,high,high
1522,7,choice,23,yogurt,3.0,9.0,low,high
1523,7,choice,24,watermelon,1.54,1.0,low,high
1524,7,choice,25,chocolate,2.43,5.0,high,high
1525,7,choice,26,apple,1.16,10.0,high,low
1526,7,choice,27,popcorn,3.98,7.0,low,low
1527,7,choice,28,cookie,3.87,9.0,high,high
1528,7,choice,29,watermelon,0.71,4.0,low,high
1529,7,choice,30,fries,1.26,8.0,low,high
1530,7,choice,31,tofu,2.94,2.0,low,high
1531,7,choice,32,tofu,1.59,6.0,low,high
1532,7,choice,33,pasta,3.46,10.0,low,high
1533,7,choice,34,cookie,3.91,1.0,high,high
1534,7,choice,35,onion rings,1.24,2.0,low,low
1535,7,choice,36,donut,1.8,10.0,high,high
1536,7,choice,37,kale,2.64,6.0,low,high
1537,7,choice,38,oatmeal,0.82,1.0,high,low
1538,7,choice,39,avocado,3.17,6.0,low,low
1539,7,choice,40,waffles,2.2,1.0,low,low
1540,7,choice,41,spinach,2.74,9.0,low,low
1541,7,choice,42,tofu,0.66,4.0,low,high
1542,7,choice,43,avocado,1.87,3.0,low,low
1543,7,choice,44,watermelon,2.69,7.0,low,high
1544,7,choice,45,milk,,,low,high
1545,7,choice,46,cranberries,3.41,10.0,high,low
1546,7,choice,47,granola,1.62,8.0,low,low
1547,7,choice,48,waffles,0.82,1.0,low,low
1548,7,choice,49,beans,2.55,10.0,low,high
1549,7,choice,50,burger,1.21,9.0,high,high
1550,7,choice,51,tofu,1.58,4.0,low,high
1551,7,choice,52,beef,1.06,8.0,high,high
1552,7,choice,53,chicken,2.56,10.0,low,low
1553,7,choice,54,soda,1.05,8.0,low,high
1554,7,choice,55,grapes,0.62,8.0,high,high
1555,7,choice,56,kale,0.94,5.0,low,high
1556,7,choice,57,rice,1.16,8.0,low,low
1557,7,choice,58,watermelon,1.07,9.0,low,high
1558,7,choice,59,steak,3.03,1.0,high,low
1559,7,choice,60,cookie,3.03,10.0,high,high
1560,7,choice,61,donut,2.96,4.0,high,high
1561,7,choice,62,tofu,2.95,10.0,low,high
1562,7,choice,63,pear,3.37,6.0,high,high
1563,7,choice,64,ice cream,0.69,1.0,high,low
1564,7,choice,65,syrup,3.21,1.0,low,low
1565,7,choice,66,nuts,2.07,1.0,low,high
1566,7,choice,67,cake,0.72,10.0,high,low
1567,7,choice,68,pear,2.32,5.0,high,high
1568,7,choice,69,grapes,2.4,10.0,high,high
1569,7,choice,70,cereal,0.82,7.0,high,high
1570,7,choice,71,toast,2.29,6.0,high,high
1571,7,choice,72,rice,3.7,5.0,low,low
1572,7,choice,73,kale,2.52,9.0,low,high
1573,7,choice,74,ice cream,1.28,10.0,high,low
1574,7,choice,75,peanut butter,1.94,1.0,low,low
1575,8,health,1,yogurt,1.3,7.0,low,high
1576,8,health,2,turkey,1.73,5.0,high,low
1577,8,health,3,cookie,1.74,1.0,high,high
1578,8,health,4,grapes,3.19,9.0,high,high
1579,8,health,5,spinach,3.39,7.0,low,low
1580,8,health,6,pear,2.49,3.0,high,high
1581,8,health,7,grapes,1.38,9.0,high,high
1582,8,health,8,cheese,1.1,8.0,high,low
1583,8,health,9,fries,0.75,6.0,low,high
1584,8,health,10,rice,2.2,3.0,low,low
1585,8,health,11,cranberries,0.65,8.0,high,low
1586,8,health,12,pear,1.52,1.0,high,high
1587,8,health,13,grapes,2.79,4.0,high,high
1588,8,health,14,nuts,3.55,1.0,low,high
1589,8,health,15,apple,2.28,10.0,high,low
1590,8,health,16,peanut butter,2.14,2.0,low,low
1591,8,health,17,cookie,3.77,7.0,high,high
1592,8,health,18,shrimp,3.2,7.0,high,high
1593,8,health,19,chocolate,0.9,9.0,high,high
1594,8,health,20,beef,1.43,7.0,high,high
1595,8,health,21,cake,2.56,3.0,high,low
1596,8,health,22,candy,3.97,9.0,high,low
1597,8,health,23,pear,1.58,2.0,high,high
1598,8,health,24,bacon,0.88,3.0,low,high
1599,8,health,25,shrimp,1.09,2.0,high,high
1600,8,health,26,beef,1.56,6.0,high,high
1601,8,health,27,spinach,2.58,9.0,low,low
1602,8,health,28,turkey,2.24,3.0,high,low
1603,8,health,29,turkey,3.42,8.0,high,low
1604,8,health,30,popcorn,0.87,8.0,low,low
1605,8,health,31,ice cream,2.67,1.0,high,low
1606,8,health,32,granola,0.78,2.0,low,low
1607,8,health,33,bacon,0.68,6.0,low,high
1608,8,health,34,beans,1.14,5.0,low,high
1609,8,health,35,cake,3.28,7.0,high,low
1610,8,health,36,onion rings,0.9,9.0,low,low
1611,8,health,37,rice,0.99,1.0,low,low
1612,8,health,38,cheese,1.55,5.0,high,low
1613,8,health,39,peanut butter,3.19,7.0,low,low
1614,8,health,40,burger,2.24,7.0,high,high
1615,8,health,41,beef,3.89,9.0,high,high
1616,8,health,42,grapes,1.86,10.0,high,high
1617,8,health,43,spinach,3.98,10.0,low,low
1618,8,health,44,milk,3.21,5.0,low,high
1619,8,health,45,burger,3.32,6.0,high,high
1620,8,health,46,fries,2.72,3.0,low,high
1621,8,health,47,ice cream,2.51,7.0,high,low
1622,8,health,48,beans,2.06,5.0,low,high
1623,8,health,49,onion rings,1.92,2.0,low,low
1624,8,health,50,cookie,1.37,1.0,high,high
1625,8,health,51,salmon,1.95,8.0,low,low
1626,8,health,52,cookie,1.96,1.0,high,high
1627,8,health,53,shrimp,0.75,2.0,high,high
1628,8,health,54,donut,2.53,8.0,high,high
1629,8,health,55,peanut butter,2.27,10.0,low,low
1630,8,health,56,shrimp,1.97,1.0,high,high
1631,8,health,57,burger,1.0,1.0,high,high
1632,8,health,58,rice,0.74,2.0,low,low
1633,8,health,59,fries,1.44,1.0,low,high
1634,8,health,60,popcorn,0.89,6.0,low,low
1635,8,health,61,apple,1.65,1.0,high,low
1636,8,health,62,cereal,2.8,3.0,high,high
1637,8,health,63,cheese,1.1,4.0,high,low
1638,8,health,64,chocolate,3.09,9.0,high,high
1639,8,health,65,broccoli,3.85,2.0,low,high
1640,8,health,66,donut,0.76,7.0,high,high
1641,8,health,67,salmon,3.99,1.0,low,low
1642,8,health,68,syrup,3.66,5.0,low,low
1643,8,health,69,popcorn,3.27,10.0,low,low
1644,8,health,70,cranberries,1.61,2.0,high,low
1645,8,health,71,syrup,0.65,3.0,low,low
1646,8,health,72,popcorn,3.25,5.0,low,low
1647,8,health,73,milk,1.32,1.0,low,high
1648,8,health,74,candy,3.24,7.0,high,low
1649,8,health,75,avocado,0.73,4.0,low,low
1650,8,taste,1,avocado,1.11,9.0,low,low
1651,8,taste,2,pasta,1.82,7.0,low,high
1652,8,taste,3,eggs,1.9,5.0,low,low
1653,8,taste,4,donut,3.24,3.0,high,high
1654,8,taste,5,cucumber,,,low,high
1655,8,taste,6,spinach,3.85,3.0,low,low
1656,8,taste,7,beef,3.26,10.0,high,high
1657,8,taste,8,chicken,2.42,4.0,low,low
1658,8,taste,9,tofu,3.37,8.0,low,high
1659,8,taste,10,chocolate,2.77,4.0,high,high
1660,8,taste,11,kale,3.86,3.0,low,high
1661,8,taste,12,apple,3.06,1.0,high,low
1662,8,taste,13,spinach,1.16,3.0,low,low
1663,8,taste,14,salmon,3.38,8.0,low,low
1664,8,taste,15,cheese,0.84,10.0,high,low
1665,8,taste,16,cake,1.3,1.0,high,low
1666,8,taste,17,cucumber,2.11,10.0,low,high
1667,8,taste,18,beef,3.21,4.0,high,high
1668,8,taste,19,turkey,2.71,6.0,high,low
1669,8,taste,20,cereal,3.23,1.0,high,high
1670,8,taste,21,soda,1.39,8.0,low,high
1671,8,taste,22,turkey,3.87,2.0,high,low
1672,8,taste,23,cake,3.61,7.0,high,low
1673,8,taste,24,pasta,2.0,4.0,low,high
1674,8,taste,25,apple,3.13,10.0,high,low
1675,8,taste,26,pasta,3.29,7.0,low,high
1676,8,taste,27,tofu,3.02,3.0,low,high
1677,8,taste,28,milk,0.83,2.0,low,high
1678,8,taste,29,watermelon,0.69,3.0,low,high
1679,8,taste,30,yogurt,2.27,1.0,low,high
1680,8,taste,31,fries,2.65,6.0,low,high
1681,8,taste,32,steak,3.82,10.0,high,low
1682,8,taste,33,turkey,0.58,3.0,high,low
1683,8,taste,34,tofu,3.36,3.0,low,high
1684,8,taste,35,watermelon,,,low,high
1685,8,taste,36,shrimp,2.49,8.0,high,high
1686,8,taste,37,avocado,1.21,9.0,low,low
1687,8,taste,38,peanut butter,1.62,7.0,low,low
1688,8,taste,39,avocado,2.0,6.0,low,low
1689,8,taste,40,grapes,3.32,5.0,high,high
1690,8,taste,41,oatmeal,1.39,3.0,high,low
1691,8,taste,42,rice,2.12,6.0,low,low
1692,8,taste,43,spinach,1.26,6.0,low,low
1693,8,taste,44,granola,3.15,6.0,low,low
1694,8,taste,45,peach,1.65,2.0,high,low
1695,8,taste,46,chicken,1.01,8.0,low,low
1696,8,taste,47,burger,1.78,2.0,high,high
1697,8,taste,48,kale,3.94,1.0,low,high
1698,8,taste,49,pizza,2.26,2.0,high,low
1699,8,taste,50,carrot,3.83,10.0,high,high
1700,8,taste,51,pizza,2.32,4.0,high,low
1701,8,taste,52,steak,0.56,5.0,high,low
1702,8,taste,53,steak,2.3,4.0,high,low
1703,8,taste,54,ice cream,1.72,9.0,high,low
1704,8,taste,55,banana,0.97,5.0,low,low
1705,8,taste,56,ice cream,1.71,7.0,high,low
1706,8,taste,57,broccoli,0.96,10.0,low,high
1707,8,taste,58,cranberries,1.3,10.0,high,low
1708,8,taste,59,donut,2.63,8.0,high,high
1709,8,taste,60,syrup,2.67,6.0,low,low
1710,8,taste,61,turkey,2.26,10.0,high,low
1711,8,taste,62,lettuce,1.74,2.0,low,high
1712,8,taste,63,mango,0.69,3.0,low,low
1713,8,taste,64,toast,1.72,9.0,high,high
1714,8,taste,65,avocado,0.96,6.0,low,low
1715,8,taste,66,cereal,2.85,3.0,high,high
1716,8,taste,67,candy,2.56,6.0,high,low
1717,8,taste,68,toast,2.8,5.0,high,high
1718,8,taste,69,chocolate,2.0,9.0,high,high
1719,8,taste,70,salmon,1.93,5.0,low,low
1720,8,taste,71,peanut butter,2.85,5.0,low,low
1721,8,taste,72,donut,3.29,8.0,high,high
1722,8,taste,73,donut,3.27,3.0,high,high
1723,8,taste,74,broccoli,3.94,3.0,low,high
1724,8,taste,75,broccoli,1.96,3.0,low,high
1725,8,choice,1,granola,2.64,3.0,low,low
1726,8,choice,2,toast,3.55,6.0,high,high
1727,8,choice,3,cookie,2.97,3.0,high,high
1728,8,choice,4,toast,3.69,5.0,high,high
1729,8,choice,5,salmon,3.71,7.0,low,low
1730,8,choice,6,lettuce,2.08,7.0,low,high
1731,8,choice,7,popcorn,3.13,9.0,low,low
1732,8,choice,8,cheese,1.7,8.0,high,low
1733,8,choice,9,granola,2.12,9.0,low,low
1734,8,choice,10,lettuce,0.9,3.0,low,high
1735,8,choice,11,cranberries,1.32,5.0,high,low
1736,8,choice,12,toast,1.01,2.0,high,high
1737,8,choice,13,steak,3.35,1.0,high,low
1738,8,choice,14,donut,2.12,10.0,high,high
1739,8,choice,15,rice,3.28,1.0,low,low
1740,8,choice,16,cake,1.19,4.0,high,low
1741,8,choice,17,tofu,2.87,9.0,low,high
1742,8,choice,18,banana,3.26,7.0,low,low
1743,8,choice,19,watermelon,0.86,5.0,low,high
1744,8,choice,20,yogurt,2.2,8.0,low,high
1745,8,choice,21,rice,2.55,9.0,low,low
1746,8,choice,22,ice cream,2.53,10.0,high,low
1747,8,choice,23,eggs,0.78,8.0,low,low
1748,8,choice,24,chicken,1.53,6.0,low,low
1749,8,choice,25,tofu,2.18,10.0,low,high
1750,8,choice,26,fries,3.73,9.0,low,high
1751,8,choice,27,rice,3.62,8.0,low,low
1752,8,choice,28,cake,1.37,9.0,high,low
1753,8,choice,29,apple,1.64,3.0,high,low
1754,8,choice,30,beans,0.54,5.0,low,high
1755,8,choice,31,banana,,,low,low
1756,8,choice,32,pizza,2.71,6.0,high,low
1757,8,choice,33,soda,3.21,1.0,low,high
1758,8,choice,34,peanut butter,2.49,5.0,low,low
1759,8,choice,35,peanut butter,1.69,1.0,low,low
1760,8,choice,36,cookie,2.7,9.0,high,high
1761,8,choice,37,bacon,3.28,1.0,low,high
1762,8,choice,38,cereal,0.89,9.0,high,high
1763,8,choice,39,cookie,1.87,10.0,high,high
1764,8,choice,40,turkey,3.78,2.0,high,low
1765,8,choice,41,tofu,1.1,2.0,low,high
1766,8,choice,42,mango,2.13,4.0,low,low
1767,8,choice,43,popcorn,2.46,2.0,low,low
1768,8,choice,44,bacon,2.68,6.0,low,high
1769,8,choice,45,granola,3.42,10.0,low,low
1770,8,choice,46,cucumber,2.5,3.0,low,high
1771,8,choice,47,apple,3.01,4.0,high,low
1772,8,choice,48,fries,2.63,8.0,low,high
1773,8,choice,49,beans,0.99,2.0,low,high
1774,8,choice,50,kale,1.46,10.0,low,high
1775,8,choice,51,bacon,3.37,4.0,low,high
1776,8,choice,52,onion rings,2.57,3.0,low,low
1777,8,choice,53,popcorn,2.56,7.0,low,low
1778,8,choice,54,cookie,1.56,6.0,high,high
1779,8,choice,55,steak,2.37,9.0,high,low
1780,8,choice,56,cucumber,1.75,5.0,low,high
1781,8,choice,57,shrimp,1.67,8.0,high,high
1782,8,choice,58,chocolate,0.92,5.0,high,high
1783,8,choice,59,oatmeal,0.96,10.0,high,low
1784,8,choice,60,steak,2.59,2.0,high,low
1785,8,choice,61,cheese,1.32,10.0,high,low
1786,8,choice,62,chocolate,3.97,1.0,high,high
1787,8,choice,63,steak,1.52,9.0,high,low
1788,8,choice,64,chicken,0.65,1.0,low,low
1789,8,choice,65,avocado,2.73,8.0,low,low
1790,8,choice,66,carrot,3.04,5.0,high,high
1791,8,choice,67,cranberries,1.76,6.0,high,low
1792,8,choice,68,tofu,3.64,2.0,low,high
1793,8,choice,69,watermelon,3.42,1.0,low,high
1794,8,choice,70,nuts,3.5,9.0,low,high
1795,8,choice,71,lettuce,1.08,4.0,low,high
1796,8,choice,72,pasta,0.57,10.0,low,high
1797,8,choice,73,onion rings,,,low,low
1798,8,choice,74,peach,2.87,9.0,high,low
1799,8,choice,75,kale,2.64,5.0,low,high
1800,9,health,1,turkey,1.63,5.0,high,low
1801,9,health,2,steak,3.55,4.0,high,low
1802,9,health,3,carrot,2.35,9.0,high,high
1803,9,health,4,shrimp,1.49,4.0,high,high
1804,9,health,5,milk,1.99,6.0,low,high
1805,9,health,6,milk,1.37,2.0,low,high
1806,9,health,7,cucumber,1.4,7.0,low,high
1807,9,health,8,carrot,1.5,3.0,high,high
1808,9,health,9,burger,2.9,6.0,high,high
1809,9,health,10,onion rings,1.52,3.0,low,low
1810,9,health,11,broccoli,3.01,2.0,low,high
1811,9,health,12,pasta,2.44,4.0,low,high
1812,9,health,13,shrimp,1.3,9.0,high,high
1813,9,health,14,spinach,1.1,6.0,low,low
1814,9,health,15,pizza,3.74,6.0,high,low
1815,9,health,16,pasta,1.35,6.0,low,high
1816,9,health,17,avocado,3.4,1.0,low,low
1817,9,health,18,onion rings,2.64,2.0,low,low
1818,9,health,19,grapes,3.14,4.0,high,high
1819,9,health,20,ice cream,1.6,10.0,high,low
1820,9,health,21,steak,3.37,6.0,high,low
1821,9,health,22,banana,2.29,2.0,low,low
1822,9,health,23,cucumber,1.76,10.0,low,high
1823,9,health,24,popcorn,1.13,7.0,low,low
1824,9,health,25,pizza,2.69,3.0,high,low
1825,9,health,26,syrup,3.98,10.0,low,low
1826,9,health,27,carrot,2.44,5.0,high,high
1827,9,health,28,cake,0.62,8.0,high,low
1828,9,health,29,lettuce,2.24,1.0,low,high
1829,9,health,30,pizza,3.05,1.0,high,low
1830,9,health,31,spinach,3.34,6.0,low,low
1831,9,health,32,syrup,1.52,4.0,low,low
1832,9,health,33,nuts,1.1,3.0,low,high
1833,9,health,34,cucumber,1.16,7.0,low,high
1834,9,health,35,soda,0.63,5.0,low,high
1835,9,health,36,pasta,3.04,4.0,low,high
1836,9,health,37,donut,2.41,1.0,high,high
1837,9,health,38,mango,1.05,8.0,low,low
1838,9,health,39,shrimp,1.53,7.0,high,high
1839,9,health,40,cereal,3.2,8.0,high,high
1840,9,health,41,oatmeal,1.83,9.0,high,low
1841,9,health,42,beef,2.73,8.0,high,high
1842,9,health,43,pear,3.21,1.0,high,high
1843,9,health,44,broccoli,,,low,high
1844,9,health,45,avocado,2.14,1.0,low,low
1845,9,health,46,shrimp,3.17,3.0,high,high
1846,9,health,47,milk,3.52,4.0,low,high
1847,9,health,48,kale,1.64,10.0,low,high
1848,9,health,49,carrot,2.97,7.0,high,high
1849,9,health,50,nuts,3.5,7.0,low,high
1850,9,health,51,apple,1.85,10.0,high,low
1851,9,health,52,peanut butter,1.05,5.0,low,low
1852,9,health,53,oatmeal,0.72,2.0,high,low
1853,9,health,54,pear,0.71,10.0,high,high
1854,9,health,55,pizza,1.23,7.0,high,low
1855,9,health,56,grapes,3.42,8.0,high,high
1856,9,health,57,watermelon,0.84,1.0,low,high
1857,9,health,58,shrimp,2.17,10.0,high,high
1858,9,health,59,cereal,1.84,2.0,high,high
1859,9,health,60,chocolate,2.14,2.0,high,high
1860,9,health,61,bacon,2.81,4.0,low,high
1861,9,health,62,chocolate,3.06,3.0,high,high
1862,9,health,63,beans,1.03,8.0,low,high
1863,9,health,64,pasta,1.13,10.0,low,high
1864,9,health,65,donut,2.26,7.0,high,high
1865,9,health,66,beans,1.28,8.0,low,high
1866,9,health,67,peach,1.44,3.0,high,low
1867,9,health,68,steak,1.0,7.0,high,low
1868,9,health,69,granola,2.71,1.0,low,low
1869,9,health,70,beef,1.96,2.0,high,high
1870,9,health,71,milk,1.42,1.0,low,high
1871,9,health,72,granola,1.09,7.0,low,low
1872,9,health,73,beans,1.57,7.0,low,high
1873,9,health,74,watermelon,1.76,10.0,low,high
1874,9,health,75,waffles,1.51,5.0,low,low
1875,9,taste,1,chocolate,1.38,1.0,high,high
1876,9,taste,2,beans,2.5,6.0,low,high
1877,9,taste,3,turkey,1.36,6.0,high,low
1878,9,taste,4,lettuce,0.97,2.0,low,high
1879,9,taste,5,cranberries,2.14,5.0,high,low
1880,9,taste,6,fries,2.42,9.0,low,high
1881,9,taste,7,toast,1.47,4.0,high,high
1882,9,taste,8,salmon,3.44,8.0,low,low
1883,9,taste,9,onion rings,3.65,1.0,low,low
1884,9,taste,10,watermelon,0.76,4.0,low,high
1885,9,taste,11,syrup,3.94,3.0,low,low
1886,9,taste,12,shrimp,2.08,3.0,high,high
1887,9,taste,13,apple,1.14,4.0,high,low
1888,9,taste,14,turkey,3.74,7.0,high,low
1889,9,taste,15,spinach,2.77,3.0,low,low
1890,9,taste,16,soda,2.64,5.0,low,high
1891,9,taste,17,pear,3.09,9.0,high,high
1892,9,taste,18,waffles,1.3,1.0,low,low
1893,9,taste,19,broccoli,2.39,8.0,low,high
1894,9,taste,20,kale,3.61,9.0,low,high
1895,9,taste,21,eggs,2.81,6.0,low,low
1896,9,taste,22,donut,3.88,2.0,high,high
1897,9,taste,23,lettuce,2.04,6.0,low,high
1898,9,taste,24,waffles,2.18,1.0,low,low
1899,9,taste,25,cheese,2.63,10.0,high,low
1900,9,taste,26,turkey,3.22,5.0,high,low
1901,9,taste,27,grapes,0.99,5.0,high,high
1902,9,taste,28,bacon,1.46,7.0,low,high
1903,9,taste,29,peach,0.54,9.0,high,low
1904,9,taste,30,candy,3.95,4.0,high,low
1905,9,taste,31,peanut butter,0.81,3.0,low,low
1906,9,taste,32,avocado,1.29,5.0,low,low
1907,9,taste,33,peanut butter,1.93,5.0,low,low
1908,9,taste,34,popcorn,3.95,6.0,low,low
1909,9,taste,35,pizza,1.85,10.0,high,low
1910,9,taste,36,shrimp,1.39,2.0,high,high
1911,9,taste,37,peanut butter,2.11,9.0,low,low
1912,9,taste,38,cookie,3.71,10.0,high,high
1913,9,taste,39,popcorn,2.11,8.0,low,low
1914,9,taste,40,yogurt,3.61,10.0,low,high
1915,9,taste,41,chicken,3.45,7.0,low,low
1916,9,taste,42,milk,0.82,3.0,low,high
1917,9,taste,43,milk,3.02,7.0,low,high
1918,9,taste,44,peanut butter,1.47,6.0,low,low
1919,9,taste,45,onion rings,2.4,8.0,low,low
1920,9,taste,46,cucumber,3.3,4.0,low,high
1921,9,taste,47,granola,2.25,5.0,low,low
1922,9,taste,48,chocolate,1.57,10.0,high,high
1923,9,taste,49,bacon,0.64,7.0,low,high
1924,9,taste,50,chicken,3.69,9.0,low,low
1925,9,taste,51,onion rings,0.99,10.0,low,low
1926,9,taste,52,milk,0.79,5.0,low,high
1927,9,taste,53,spinach,2.56,1.0,low,low
1928,9,taste,54,syrup,2.26,7.0,low,low
1929,9,taste,55,toast,3.07,2.0,high,high
1930,9,taste,56,pizza,1.59,9.0,high,low
1931,9,taste,57,burger,2.84,1.0,high,high
1932,9,taste,58,steak,0.81,6.0,high,low
1933,9,taste,59,cereal,,,high,high
1934,9,taste,60,milk,1.31,4.0,low,high
1935,9,taste,61,donut,1.72,6.0,high,high
1936,9,taste,62,onion rings,2.84,2.0,low,low
1937,9,taste,63,bacon,0.96,4.0,low,high
1938,9,taste,64,salmon,2.14,1.0,low,low
1939,9,taste,65,nuts,1.32,10.0,low,high
1940,9,taste,66,peach,3.19,8.0,high,low
1941,9,taste,67,milk,3.31,4.0,low,high
1942,9,taste,68,broccoli,0.98,9.0,low,high
1943,9,taste,69,cucumber,3.97,5.0,low,high
1944,9,taste,70,carrot,0.63,10.0,high,high
1945,9,taste,71,ice cream,2.0,10.0,high,low
1946,9,taste,72,carrot,3.74,8.0,high,high
1947,9,taste,73,watermelon,2.88,9.0,low,high
1948,9,taste,74,beans,1.19,6.0,low,high
1949,9,taste,75,bacon,3.83,6.0,low,high
1950,9,choice,1,grapes,2.02,7.0,high,high
1951,9,choice,2,popcorn,2.79,5.0,low,low
1952,9,choice,3,beef,3.82,3.0,high,high
1953,9,choice,4,chicken,3.26,1.0,low,low
1954,9,choice,5,banana,3.2,7.0,low,low
1955,9,choice,6,pizza,3.81,8.0,high,low
1956,9,choice,7,kale,2.85,2.0,low,high
1957,9,choice,8,grapes,2.0,9.0,high,high
1958,9,choice,9,mango,0.83,9.0,low,low
1959,9,choice,10,pasta,2.21,4.0,low,high
1960,9,choice,11,lettuce,2.71,10.0,low,high
1961,9,choice,12,oatmeal,1.16,9.0,high,low
1962,9,choice,13,granola,3.81,2.0,low,low
1963,9,choice,14,pizza,3.03,8.0,high,low
1964,9,choice,15,soda,3.83,8.0,low,high
1965,9,choice,16,cookie,1.6,7.0,high,high
1966,9,choice,17,pizza,3.78,9.0,high,low
1967,9,choice,18,waffles,3.52,7.0,low,low
1968,9,choice,19,chicken,1.2,1.0,low,low
1969,9,choice,20,watermelon,1.77,1.0,low,high
1970,9,choice,21,watermelon,0.58,6.0,low,high
1971,9,choice,22,carrot,3.42,9.0,high,high
1972,9,choice,23,milk,3.44,8.0,low,high
1973,9,choice,24,lettuce,2.06,2.0,low,high
1974,9,choice,25,granola,1.67,8.0,low,low
1975,9,choice,26,pear,3.34,9.0,high,high
1976,9,choice,27,syrup,1.68,10.0,low,low
1977,9,choice,28,mango,3.59,3.0,low,low
1978,9,choice,29,tofu,0.87,3.0,low,high
1979,9,choice,30,yogurt,1.26,4.0,low,high
1980,9,choice,31,cheese,2.93,3.0,high,low
1981,9,choice,32,mango,0.71,9.0,low,low
1982,9,choice,33,banana,1.89,5.0,low,low
1983,9,choice,34,apple,3.09,10.0,high,low
1984,9,choice,35,broccoli,1.29,5.0,low,high
1985,9,choice,36,avocado,2.09,6.0,low,low
1986,9,choice,37,pasta,2.61,3.0,low,high
1987,9,choice,38,mango,3.04,3.0,low,low
1988,9,choice,39,oatmeal,0.53,10.0,high,low
1989,9,choice,40,waffles,0.78,6.0,low,low
1990,9,choice,41,pasta,0.85,1.0,low,high
1991,9,choice,42,popcorn,0.62,8.0,low,low
1992,9,choice,43,cake,2.71,9.0,high,low
1993,9,choice,44,lettuce,2.12,5.0,low,high
1994,9,choice,45,turkey,2.78,4.0,high,low
1995,9,choice,46,chocolate,3.08,10.0,high,high
1996,9,choice,47,bacon,1.69,1.0,low,high
1997,9,choice,48,cranberries,1.09,9.0,high,low
1998,9,choice,49,shrimp,0.76,2.0,high,high
1999,9,choice,50,lettuce,2.59,1.0,low,high
2000,9,choice,51,rice,1.66,5.0,low,low
2001,9,choice,52,fries,2.59,4.0,low,high
2002,9,choice,53,lettuce,1.84,2.0,low,high
2003,9,choice,54,avocado,3.83,5.0,low,low
2004,9,choice,55,chicken,3.1,7.0,low,low
2005,9,choice,56,kale,3.3,5.0,low,high
2006,9,choice,57,steak,1.24,3.0,high,low
2007,9,choice,58,pizza,2.95,6.0,high,low
2008,9,choice,59,fries,1.37,3.0,low,high
2009,9,choice,60,cheese,3.06,7.0,high,low
2010,9,choice,61,eggs,2.99,8.0,low,low
2011,9,choice,62,cake,1.3,9.0,high,low
2012,9,choice,63,kale,0.76,5.0,low,high
2013,9,choice,64,steak,1.48,5.0,high,low
2014,9,choice,65,apple,0.8,4.0,high,low
2015,9,choice,66,popcorn,3.17,7.0,low,low
2016,9,choice,67,fries,2.22,9.0,low,high
2017,9,choice,68,spinach,1.41,10.0,low,low
2018,9,choice,69,eggs,3.32,4.0,low,low
2019,9,choice,70,peach,2.04,6.0,high,low
2020,9,choice,71,eggs,3.72,7.0,low,low
2021,9,choice,72,nuts,1.6,4.0,low,high
2022,9,choice,73,pizza,3.21,7.0,high,low
2023,9,choice,74,kale,1.38,8.0,low,high
2024,9,choice,75,shrimp,2.99,2.0,high,high
2025,10,health,1,eggs,3.06,7.0,low,low
2026,10,health,2,waffles,0.79,10.0,low,low
2027,10,health,3,chocolate,1.98,5.0,high,high
2028,10,health,4,donut,1.13,8.0,high,high
2029,10,health,5,ice cream,3.78,4.0,high,low
2030,10,health,6,lettuce,2.21,4.0,low,high
2031,10,health,7,cucumber,,,low,high
2032,10,health,8,pear,3.48,9.0,high,high
2033,10,health,9,peach,1.58,2.0,high,low
2034,10,health,10,waffles,3.83,9.0,low,low
2035,10,health,11,banana,3.78,1.0,low,low
2036,10,health,12,bacon,2.5,8.0,low,high
2037,10,health,13,shrimp,1.83,1.0,high,high
2038,10,health,14,pizza,3.76,8.0,high,low
2039,10,health,15,peach,3.1,4.0,high,low
2040,10,health,16,beef,2.61,3.0,high,high
2041,10,health,17,broccoli,2.73,9.0,low,high
2042,10,health,18,kale,1.01,9.0,low,high
2043,10,health,19,beans,3.06,9.0,low,high
2044,10,health,20,broccoli,2.18,7.0,low,high
2045,10,health,21,peanut butter,1.48,8.0,low,low
2046,10,health,22,avocado,3.12,5.0,low,low
2047,10,health,23,pear,3.47,5.0,high,high
2048,10,health,24,salmon,3.07,3.0,low,low
2049,10,health,25,cake,2.16,3.0,high,low
2050,10,health,26,broccoli,3.17,2.0,low,high
2051,10,health,27,steak,3.24,7.0,high,low
2052,10,health,28,beef,1.36,10.0,high,high
2053,10,health,29,cheese,2.99,6.0,high,low
2054,10,health,30,pasta,2.49,7.0,low,high
2055,10,health,31,eggs,1.66,9.0,low,low
2056,10,health,32,ice cream,3.71,3.0,high,low
2057,10,health,33,cheese,2.58,10.0,high,low
2058,10,health,34,eggs,1.53,5.0,low,low
2059,10,health,35,donut,1.18,9.0,high,high
2060,10,health,36,banana,1.22,5.0,low,low
2061,10,health,37,popcorn,1.56,1.0,low,low
2062,10,health,38,cake,2.87,5.0,high,low
2063,10,health,39,carrot,3.31,3.0,high,high
2064,10,health,40,carrot,3.02,4.0,high,high
2065,10,health,41,cheese,3.26,8.0,high,low
2066,10,health,42,milk,2.35,7.0,low,high
2067,10,health,43,salmon,1.72,4.0,low,low
2068,10,health,44,onion rings,2.78,10.0,low,low
2069,10,health,45,cranberries,3.36,8.0,high,low
2070,10,health,46,yogurt,3.65,1.0,low,high
2071,10,health,47,watermelon,3.27,6.0,low,high
2072,10,health,48,onion rings,2.14,1.0,low,low
2073,10,health,49,bacon,3.27,7.0,low,high
2074,10,health,50,carrot,1.61,3.0,high,high
2075,10,health,51,cake,3.86,4.0,high,low
2076,10,health,52,avocado,2.88,1.0,low,low
2077,10,health,53,pasta,3.64,6.0,low,high
2078,10,health,54,cheese,1.79,3.0,high,low
2079,10,health,55,onion rings,0.96,6.0,low,low
2080,10,health,56,turkey,1.57,3.0,high,low
2081,10,health,57,peanut butter,3.99,3.0,low,low
2082,10,health,58,toast,0.52,6.0,high,high
2083,10,health,59,broccoli,3.19,2.0,low,high
2084,10,health,60,peanut butter,3.56,5.0,low,low
2085,10,health,61,fries,0.7,8.0,low,high
2086,10,health,62,cranberries,0.69,7.0,high,low
2087,10,health,63,ice cream,2.88,10.0,high,low
2088,10,health,64,chicken,1.11,4.0,low,low
2089,10,health,65,spinach,2.11,9.0,low,low
2090,10,health,66,cake,2.22,10.0,high,low
2091,10,health,67,pizza,1.77,3.0,high,low
2092,10,health,68,granola,1.66,1.0,low,low
2093,10,health,69,syrup,3.59,1.0,low,low
2094,10,health,70,peanut butter,3.35,5.0,low,low
2095,10,health,71,watermelon,1.82,3.0,low,high
2096,10,health,72,rice,2.72,4.0,low,low
2097,10,health,73,onion rings,0.53,4.0,low,low
2098,10,health,74,watermelon,3.83,10.0,low,high
2099,10,health,75,chicken,2.06,8.0,low,low
2100,10,taste,1,beef,2.79,7.0,high,high
2101,10,taste,2,spinach,2.14,6.0,low,low
2102,10,taste,3,steak,2.32,9.0,high,low
2103,10,taste,4,ice cream,3.05,10.0,high,low
2104,10,taste,5,beans,2.93,8.0,low,high
2105,10,taste,6,pear,3.71,7.0,high,high
2106,10,taste,7,bacon,1.61,4.0,low,high
2107,10,taste,8,cake,0.72,10.0,high,low
2108,10,taste,9,broccoli,0.7,9.0,low,high
2109,10,taste,10,apple,3.7,2.0,high,low
2110,10,taste,11,beans,0.76,7.0,low,high
2111,10,taste,12,cranberries,0.74,7.0,high,low
2112,10,taste,13,peanut butter,1.45,9.0,low,low
2113,10,taste,14,pizza,3.83,3.0,high,low
2114,10,taste,15,soda,3.36,10.0,low,high
2115,10,taste,16,pizza,1.33,1.0,high,low
2116,10,taste,17,yogurt,0.8,8.0,low,high
2117,10,taste,18,cranberries,2.63,8.0,high,low
2118,10,taste,19,cereal,2.87,10.0,high,high
2119,10,taste,20,beans,1.11,5.0,low,high
2120,10,taste,21,ice cream,3.04,5.0,high,low
2121,10,taste,22,kale,0.61,1.0,low,high
2122,10,taste,23,kale,1.69,10.0,low,high
2123,10,taste,24,grapes,3.12,3.0,high,high
2124,10,taste,25,pizza,2.61,5.0,high,low
2125,10,taste,26,pasta,2.2,7.0,low,high
2126,10,taste,27,granola,3.8,5.0,low,low
2127,10,taste,28,chicken,1.4,7.0,low,low
2128,10,taste,29,apple,3.92,1.0,high,low
2129,10,taste,30,apple,2.75,2.0,high,low
2130,10,taste,31,milk,3.35,6.0,low,high
2131,10,taste,32,cereal,3.79,10.0,high,high
2132,10,taste,33,donut,2.22,6.0,high,high
2133,10,taste,34,cranberries,2.56,9.0,high,low
2134,10,taste,35,beans,2.86,6.0,low,high
2135,10,taste,36,burger,2.78,7.0,high,high
2136,10,taste,37,donut,3.51,3.0,high,high
2137,10,taste,38,pear,2.71,3.0,high,high
2138,10,taste,39,popcorn,2.32,7.0,low,low
2139,10,taste,40,turkey,2.07,2.0,high,low
2140,10,taste,41,cookie,3.86,2.0,high,high
2141,10,taste,42,grapes,0.89,6.0,high,high
2142,10,taste,43,steak,0.65,4.0,high,low
2143,10,taste,44,candy,3.34,5.0,high,low
2144,10,taste,45,cranberries,2.69,5.0,high,low
2145,10,taste,46,shrimp,1.68,5.0,high,high
2146,10,taste,47,steak,1.9,3.0,high,low
2147,10,taste,48,grapes,1.33,7.0,high,high
2148,10,taste,49,cranberries,2.42,7.0,high,low
2149,10,taste,50,cucumber,1.95,8.0,low,high
2150,10,taste,51,syrup,0.59,6.0,low,low
2151,10,taste,52,spinach,2.83,1.0,low,low
2152,10,taste,53,eggs,3.46,9.0,low,low
2153,10,taste,54,cookie,0.62,8.0,high,high
2154,10,taste,55,cookie,1.29,1.0,high,high
2155,10,taste,56,steak,0.94,3.0,high,low
2156,10,taste,57,ice cream,3.18,1.0,high,low
2157,10,taste,58,watermelon,2.44,4.0,low,high
2158,10,taste,59,cake,0.99,1.0,high,low
2159,10,taste,60,watermelon,2.45,9.0,low,high
2160,10,taste,61,onion rings,2.1,1.0,low,low
2161,10,taste,62,yogurt,1.2,10.0,low,high
2162,10,taste,63,cookie,1.73,6.0,high,high
2163,10,taste,64,tofu,0.77,9.0,low,high
2164,10,taste,65,candy,2.02,2.0,high,low
2165,10,taste,66,watermelon,3.18,10.0,low,high
2166,10,taste,67,donut,1.49,4.0,high,high
2167,10,taste,68,nuts,2.77,1.0,low,high
2168,10,taste,69,cucumber,2.88,5.0,low,high
2169,10,taste,70,nuts,1.51,4.0,low,high
2170,10,taste,71,cookie,3.65,3.0,high,high
2171,10,taste,72,cucumber,2.7,10.0,low,high
2172,10,taste,73,beef,3.21,8.0,high,high
2173,10,taste,74,bacon,2.54,6.0,low,high
2174,10,taste,75,fries,3.74,1.0,low,high
2175,10,choice,1,cereal,2.06,9.0,high,high
2176,10,choice,2,burger,2.79,1.0,high,high
2177,10,choice,3,onion rings,2.87,3.0,low,low
2178,10,choice,4,yogurt,2.8,9.0,low,high
2179,10,choice,5,tofu,3.37,7.0,low,high
2180,10,choice,6,beef,3.24,1.0,high,high
2181,10,choice,7,grapes,3.39,7.0,high,high
2182,10,choice,8,oatmeal,2.4,2.0,high,low
2183,10,choice,9,waffles,2.85,9.0,low,low
2184,10,choice,10,cake,2.59,4.0,high,low
2185,10,choice,11,oatmeal,2.08,1.0,high,low
2186,10,choice,12,peach,3.72,4.0,high,low
2187,10,choice,13,cereal,2.61,7.0,high,high
2188,10,choice,14,candy,2.91,3.0,high,low
2189,10,choice,15,burger,1.53,5.0,high,high
2190,10,choice,16,granola,3.61,2.0,low,low
2191,10,choice,17,turkey,1.19,4.0,high,low
2192,10,choice,18,chocolate,1.88,7.0,high,high
2193,10,choice,19,eggs,3.08,9.0,low,low
2194,10,choice,20,burger,1.99,1.0,high,high
2195,10,choice,21,chocolate,2.29,6.0,high,high
2196,10,choice,22,pizza,3.79,5.0,high,low
2197,10,choice,23,beans,3.64,9.0,low,high
2198,10,choice,24,chicken,0.53,6.0,low,low
2199,10,choice,25,watermelon,1.17,4.0,low,high
2200,10,choice,26,apple,1.81,9.0,high,low
2201,10,choice,27,onion rings,3.34,5.0,low,low
2202,10,choice,28,pear,2.3,6.0,high,high
2203,10,choice,29,burger,3.07,6.0,high,high
2204,10,choice,30,kale,3.53,6.0,low,high
2205,10,choice,31,cheese,2.73,3.0,high,low
2206,10,choice,32,watermelon,2.92,10.0,low,high
2207,10,choice,33,soda,2.53,5.0,low,high
2208,10,choice,34,chocolate,3.19,8.0,high,high
2209,10,choice,35,rice,2.24,3.0,low,low
2210,10,choice,36,donut,2.8,9.0,high,high
2211,10,choice,37,chocolate,2.61,7.0,high,high
2212,10,choice,38,shrimp,1.47,2.0,high,high
2213,10,choice,39,cookie,1.82,10.0,high,high
2214,10,choice,40,chicken,2.94,9.0,low,low
2215,10,choice,41,chocolate,2.26,2.0,high,high
2216,10,choice,42,chicken,1.11,6.0,low,low
2217,10,choice,43,steak,2.87,6.0,high,low
2218,10,choice,44,broccoli,1.92,10.0,low,high
2219,10,choice,45,nuts,3.3,4.0,low,high
2220,10,choice,46,soda,1.64,9.0,low,high
2221,10,choice,47,carrot,3.98,4.0,high,high
2222,10,choice,48,cookie,0.86,3.0,high,high
2223,10,choice,49,watermelon,0.82,4.0,low,high
2224,10,choice,50,broccoli,3.83,9.0,low,high
2225,10,choice,51,soda,1.5,5.0,low,high
2226,10,choice,52,cheese,1.36,5.0,high,low
2227,10,choice,53,carrot,1.02,2.0,high,high
2228,10,choice,54,cheese,2.36,1.0,high,low
2229,10,choice,55,cranberries,1.53,3.0,high,low
2230,10,choice,56,peach,1.15,4.0,high,low
2231,10,choice,57,onion rings,3.3,7.0,low,low
2232,10,choice,58,peach,2.85,7.0,high,low
2233,10,choice,59,syrup,0.91,9.0,low,low
2234,10,choice,60,milk,1.45,6.0,low,high
2235,10,choice,61,chocolate,3.69,1.0,high,high
2236,10,choice,62,syrup,3.89,5.0,low,low
2237,10,choice,63,cranberries,,,high,low
2238,10,choice,64,carrot,2.79,10.0,high,high
2239,10,choice,65,pear,2.64,3.0,high,high
2240,10,choice,66,apple,3.2,5.0,high,low
2241,10,choice,67,shrimp,2.15,3.0,high,high
2242,10,choice,68,cake,3.15,5.0,high,low
2243,10,choice,69,fries,0.75,5.0,low,high
2244,10,choice,70,peanut butter,1.26,9.0,low,low
2245,10,choice,71,fries,3.62,7.0,low,high
2246,10,choice,72,eggs,0.93,7.0,low,low
2247,10,choice,73,nuts,2.19,10.0,low,high
2248,10,choice,74,pizza,2.48,9.0,high,low
2249,10,choice,75,turkey,3.69,5.0,high,low
2250,11,health,1,broccoli,3.52,7.0,low,high
2251,11,health,2,cake,0.68,8.0,high,low
2252,11,health,3,chocolate,1.62,1.0,high,high
2253,11,health,4,cake,0.86,1.0,high,low
2254,11,health,5,peanut butter,2.65,6.0,low,low
2255,11,health,6,mango,2.11,5.0,low,low
2256,11,health,7,popcorn,,,low,low
2257,11,health,8,cheese,1.28,3.0,high,low
2258,11,health,9,burger,0.79,1.0,high,high
2259,11,health,10,candy,3.93,7.0,high,low
2260,11,health,11,cheese,3.51,2.0,high,low
2261,11,health,12,pasta,2.11,2.0,low,high
2262,11,health,13,lettuce,3.76,10.0,low,high
2263,11,health,14,nuts,2.6,10.0,low,high
2264,11,health,15,waffles,2.44,2.0,low,low
2265,11,health,16,granola,0.75,3.0,low,low
2266,11,health,17,eggs,0.74,8.0,low,low
2267,11,health,18,peanut butter,2.69,8.0,low,low
2268,11,health,19,watermelon,3.24,5.0,low,high
2269,11,health,20,candy,,,high,low
2270,11,health,21,eggs,1.09,1.0,low,low
2271,11,health,22,bacon,2.9,1.0,low,high
2272,11,health,23,burger,3.78,7.0,high,high
2273,11,health,24,peanut butter,3.04,8.0,low,low
2274,11,health,25,syrup,3.78,4.0,low,low
2275,11,health,26,beef,1.48,10.0,high,high
2276,11,health,27,watermelon,1.54,9.0,low,high
2277,11,health,28,carrot,2.74,2.0,high,high
2278,11,health,29,onion rings,2.64,7.0,low,low
2279,11,health,30,cranberries,3.71,2.0,high,low
2280,11,health,31,pasta,0.72,5.0,low,high
2281,11,health,32,pear,2.7,1.0,high,high
2282,11,health,33,granola,0.65,3.0,low,low
2283,11,health,34,pear,,,high,high
2284,11,health,35,eggs,1.39,3.0,low,low
2285,11,health,36,chocolate,3.23,9.0,high,high
2286,11,health,37,nuts,3.29,2.0,low,high
2287,11,health,38,steak,1.91,10.0,high,low
2288,11,health,39,apple,3.67,8.0,high,low
2289,11,health,40,watermelon,0.63,4.0,low,high
2290,11,health,41,apple,2.25,6.0,high,low
2291,11,health,42,onion rings,0.51,6.0,low,low
2292,11,health,43,watermelon,2.79,10.0,low,high
2293,11,health,44,steak,3.93,2.0,high,low
2294,11,health,45,pasta,2.04,1.0,low,high
2295,11,health,46,salmon,1.79,3.0,low,low
2296,11,health,47,cucumber,0.5,9.0,low,high
2297,11,health,48,milk,2.07,8.0,low,high
2298,11,health,49,grapes,2.98,9.0,high,high
2299,11,health,50,banana,3.98,7.0,low,low
2300,11,health,51,turkey,2.53,8.0,high,low
2301,11,health,52,broccoli,1.41,6.0,low,high
2302,11,health,53,tofu,3.71,2.0,low,high
2303,11,health,54,candy,3.78,2.0,high,low
2304,11,health,55,chicken,2.55,8.0,low,low
2305,11,health,56,popcorn,2.11,6.0,low,low
2306,11,health,57,waffles,3.63,1.0,low,low
2307,11,health,58,cake,3.52,8.0,high,low
2308,11,health,59,nuts,2.56,10.0,low,high
2309,11,health,60,cranberries,2.49,1.0,high,low
2310,11,health,61,eggs,0.51,4.0,low,low
2311,11,health,62,ice cream,3.72,6.0,high,low
2312,11,health,63,cucumber,3.98,6.0,low,high
2313,11,health,64,banana,2.09,9.0,low,low
2314,11,health,65,peach,2.58,4.0,high,low
2315,11,health,66,mango,3.02,10.0,low,low
2316,11,health,67,rice,1.45,5.0,low,low
2317,11,health,68,yogurt,1.48,6.0,low,high
2318,11,health,69,peanut butter,1.05,3.0,low,low
2319,11,health,70,cucumber,2.83,3.0,low,high
2320,11,health,71,turkey,3.41,5.0,high,low
2321,11,health,72,eggs,1.12,10.0,low,low
2322,11,health,73,cereal,2.79,9.0,high,high
2323,11,health,74,bacon,,,low,high
2324,11,health,75,kale,2.91,1.0,low,high
2325,11,taste,1,toast,1.2,2.0,high,high
2326,11,taste,2,waffles,1.19,6.0,low,low
2327,11,taste,3,chicken,2.94,8.0,low,low
2328,11,taste,4,pear,1.43,4.0,high,high
2329,11,taste,5,nuts,2.34,2.0,low,high
2330,11,taste,6,mango,1.26,4.0,low,low
2331,11,taste,7,peach,3.83,2.0,high,low
2332,11,taste,8,toast,2.73,4.0,high,high
2333,11,taste,9,cookie,1.02,9.0,high,high
2334,11,taste,10,milk,3.03,5.0,low,high
2335,11,taste,11,toast,3.06,7.0,high,high
2336,11,taste,12,rice,0.8,8.0,low,low
2337,11,taste,13,burger,3.51,1.0,high,high
2338,11,taste,14,spinach,1.08,2.0,low,low
2339,11,taste,15,banana,1.1,10.0,low,low
2340,11,taste,16,waffles,2.26,2.0,low,low
2341,11,taste,17,peanut butter,1.94,10.0,low,low
2342,11,taste,18,steak,1.82,10.0,high,low
2343,11,taste,19,spinach,3.06,3.0,low,low
2344,11,taste,20,yogurt,3.78,2.0,low,high
2345,11,taste,21,pasta,3.28,2.0,low,high
2346,11,taste,22,chicken,1.19,3.0,low,low
2347,11,taste,23,toast,3.32,4.0,high,high
2348,11,taste,24,beef,3.2,3.0,high,high
2349,11,taste,25,pizza,3.69,6.0,high,low
2350,11,taste,26,cucumber,0.88,6.0,low,high
2351,11,taste,27,cake,1.68,9.0,high,low
2352,11,taste,28,waffles,0.63,6.0,low,low
2353,11,taste,29,beef,1.77,6.0,high,high
2354,11,taste,30,bacon,3.84,8.0,low,high
2355,11,taste,31,waffles,3.93,2.0,low,low
2356,11,taste,32,spinach,2.96,2.0,low,low
2357,11,taste,33,onion rings,2.97,10.0,low,low
2358,11,taste,34,bacon,1.67,3.0,low,high
2359,11,taste,35,steak,1.79,1.0,high,low
2360,11,taste,36,popcorn,2.27,3.0,low,low
2361,11,taste,37,mango,2.88,8.0,low,low
2362,11,taste,38,eggs,2.17,8.0,low,low
2363,11,taste,39,kale,2.5,2.0,low,high
2364,11,taste,40,spinach,2.07,3.0,low,low
2365,11,taste,41,milk,3.07,10.0,low,high
2366,11,taste,42,broccoli,3.78,1.0,low,high
2367,11,taste,43,chocolate,2.85,4.0,high,high
2368,11,taste,44,syrup,3.38,2.0,low,low
2369,11,taste,45,apple,2.08,2.0,high,low
2370,11,taste,46,apple,1.85,4.0,high,low
2371,11,taste,47,peanut butter,3.74,9.0,low,low
2372,11,taste,48,ice cream,3.17,10.0,high,low
2373,11,taste,49,lettuce,1.09,4.0,low,high
2374,11,taste,50,peanut butter,0.62,2.0,low,low
2375,11,taste,51,cranberries,0.59,8.0,high,low
2376,11,taste,52,ice cream,2.6,6.0,high,low
2377,11,taste,53,steak,1.8,4.0,high,low
2378,11,taste,54,yogurt,3.74,8.0,low,high
2379,11,taste,55,carrot,3.48,3.0,high,high
2380,11,taste,56,milk,1.17,3.0,low,high
2381,11,taste,57,shrimp,1.69,10.0,high,high
2382,11,taste,58,watermelon,1.32,9.0,low,high
2383,11,taste,59,burger,0.71,7.0,high,high
2384,11,taste,60,popcorn,0.52,5.0,low,low
2385,11,taste,61,spinach,3.06,7.0,low,low
2386,11,taste,62,lettuce,2.38,8.0,low,high
2387,11,taste,63,grapes,3.14,9.0,high,high
2388,11,taste,64,bacon,3.23,2.0,low,high
2389,11,taste,65,ice cream,3.37,7.0,high,low
2390,11,taste,66,grapes,0.75,5.0,high,high
2391,11,taste,67,nuts,0.59,1.0,low,high
2392,11,taste,68,watermelon,0.68,4.0,low,high
2393,11,taste,69,burger,1.94,1.0,high,high
2394,11,taste,70,yogurt,2.98,7.0,low,high
2395,11,taste,71,nuts,2.32,10.0,low,high
2396,11,taste,72,salmon,3.48,1.0,low,low
2397,11,taste,73,grapes,0.55,3.0,high,high
2398,11,taste,74,apple,0.77,8.0,high,low
2399,11,taste,75,onion rings,3.48,3.0,low,low
2400,11,choice,1,apple,3.05,5.0,high,low
2401,11,choice,2,salmon,2.88,1.0,low,low
2402,11,choice,3,pear,3.13,10.0,high,high
2403,11,choice,4,cake,3.07,3.0,high,low
2404,11,choice,5,ice cream,3.76,7.0,high,low
2405,11,choice,6,beef,3.0,2.0,high,high
2406,11,choice,7,pear,2.82,5.0,high,high
2407,11,choice,8,pizza,3.03,6.0,high,low
2408,11,choice,9,nuts,1.03,10.0,low,high
2409,11,choice,10,soda,1.48,6.0,low,high
2410,11,choice,11,onion rings,3.12,10.0,low,low
2411,11,choice,12,onion rings,2.08,9.0,low,low
2412,11,choice,13,pear,1.29,3.0,high,high
2413,11,choice,14,onion rings,0.65,9.0,low,low
2414,11,choice,15,popcorn,3.67,5.0,low,low
2415,11,choice,16,salmon,3.39,1.0,low,low
2416,11,choice,17,bacon,0.59,7.0,low,high
2417,11,choice,18,cake,0.58,5.0,high,low
2418,11,choice,19,pear,1.49,2.0,high,high
2419,11,choice,20,milk,2.66,7.0,low,high
